accelX,accelY,accelZ,gyroX,gyroY,gyroZ,fsr1,fsr2,fsr3
-0.988296788,0.109369807,-0.395866546,3.72724601,-5.154333355,-5.604785691,0,0.103692904,0.300878217
-1.557027099,0.062977621,0.31579695,17.03273387,7.479460382,-5.382647927,0,0,0.200183447
-1.062855827,0.029388604,-0.230872846,0.181257346,-20.38910482,6.871058123,0,0,0.82961762
-0.960731608,-0.010026331,-0.435270802,-3.147781003,-9.617819842,0.468349591,0.175912422,0.417204786,0.166618365
-1.024928516,-0.083269175,-0.570560694,12.33633807,-13.3385389,3.074309209,0.324090944,0.540381184,0
-0.869965736,0.072331515,-0.85501439,-10.25618991,-42.02094906,-19.74819531,0,0,0
-0.787488713,0.27229216,-0.743858784,27.60301523,73.38382799,10.63654276,0,0,0
-1.004911482,0.019611828,-0.177018491,-9.837846946,-2.769563966,8.059910401,0,0,0.761804866
-1.081063518,-0.117357891,-0.386855565,-1.917811846,-16.91952558,0.698951413,0,0.050373239,0.775973004
-0.986531402,-0.105005499,-0.525895131,6.240388214,-18.71123184,-2.603375294,0.329930045,0.160784334,0
-0.922604165,-0.041891746,-0.763091146,-12.58912311,-18.30908985,-11.27845645,0,0,0
-0.674545232,-0.123482659,-1.024347587,-39.05349415,-45.42372765,-5.623205562,0,0,0
-1.112376666,0.228612579,-0.12364384,-49.80634226,-19.68959665,-10.56211203,0,0,0.578411979
-1.037975221,-0.029583887,-0.354335513,7.70645309,-16.5426685,8.608618725,0,0,0.843884673
-0.934668927,-0.038741454,-0.488325413,-11.68103473,-13.8360857,-3.568363028,0.258347384,0.291461693,0
-0.891774229,0.019272133,-0.726640186,9.727041683,-22.8894664,-6.701733689,0.066844541,0,0
-0.911847865,0.134890253,-0.785141261,78.399183,-82.35816299,35.81025433,0,0,0
-1.00739636,0.267010142,0.07851721,-91.34753291,-15.5633268,-30.3412069,0,0,0.272301811
-1.095718278,0,-0.298759806,1.537748758,-19.96379627,9.110913919,0,0,0.829094699
-0.954675928,-0.041971561,-0.455965265,6.597766699,-4.563233647,1.101048046,0.223805519,0.290084637,0.083794
-0.963050243,-0.041628368,-0.541631467,8.466506448,-17.74637796,-6.997601585,0.342223161,0.341635845,0
-0.906857913,0.059572266,-0.738197563,11.41800636,-47.64984165,-9.691877271,0,0,0
-0.864925379,0.30549824,-0.907113532,8.324383424,83.24711427,7.919502564,0,0,0
-1.011942,-0.125654884,-0.382275042,25.34483499,-28.36565268,14.30476242,0,0,0.626928316
-1.005642325,-0.09411237,-0.488908657,37.03166449,-16.75909619,6.047861648,0.250377463,0.32307991,0
-0.856345116,-0.010417132,-0.775273098,0,-43.0160633,-5.624168014,0,0,0
-1.017936486,0.062836767,-1.065780388,-67.70825428,191.4715829,1.945802224,0,0,0
-1.036788349,0.189846565,-0.178878431,-26.46860517,-6.556208862,0.905875338,0,0,0.649804944
-0.989511743,-0.296642159,-0.47796013,-9.244516611,-14.72850464,2.863724243,0,0,0.581606909
-0.981893624,-0.047902553,-0.522752702,-1.25483326,-10.51041023,-0.577151135,0.276481101,0.220344144,0
-0.898386723,0.038436884,-0.741230035,-8.947451881,-26.92029036,-13.8353698,0,0,0
-0.870270202,0.04189837,-0.554681032,-16.22384524,41.14146242,-1.926212589,0,0,0
-0.894969746,0.175397107,-0.06897992,-67.07959127,3.126679763,-21.07462178,0,0,0.195468873
-1.047084278,-0.093358152,-0.309864976,18.32543655,-21.42112995,13.26570357,0,0,0.792158587
-1.00810828,0.114709007,-0.400473291,-14.34105601,2.090896326,-8.435772124,0,0.138701715,0.328465937
-1.000435523,-0.110090329,-0.534969886,21.58918642,-11.12513744,6.915965832,0.125770722,0.237138945,0
-1.027701005,-0.050952695,-0.501719905,-13.51951149,-5.93075008,-12.67475262,0.164975857,0.239059311,0.051161821
-0.875144399,0.028806087,-0.740884781,17.61754295,-33.51278496,-0.181838716,0,0,0
-1.081446129,0.232287161,-0.450313143,328.485163,-20.5667603,116.028728,0,0,0.455347611
-0.992503726,0.062481107,-0.338406646,-35.97479474,-5.447097465,-3.96592905,0,0.128376741,0.604954027
-0.908680214,-0.104033793,-0.485893452,5.243352499,-4.266686334,7.122343058,0.208654412,0.401555967,0.090948679
-0.938800245,0.094274996,-0.674205288,17.13164262,-37.21825761,-12.16524908,0,0,0
-1.146893478,0.394416255,-0.730186896,85.33991295,238.3539348,2.019360947,0,0,0
-1.085680089,-0.010422383,-0.211410504,26.26319005,-28.69390932,19.51401646,0,0,0.58818923
-1.0598827,-0.019851399,-0.378902458,6.586610284,-9.117251023,2.963538935,0,0,0.893208017
-0.945151467,-0.079623679,-0.444557052,-6.61692807,-4.614889157,-3.399987682,0.219640572,0.11166326,0.380620719
-0.937634201,-0.0608527,-0.710598412,-22.43937456,-21.50297347,-11.66218576,0.271907315,0.175756819,0
-1.146660232,0.069035184,-0.783575701,6.56613129,-79.77823243,14.1238338,0,0,0
-0.793897668,0.183576872,0.019246572,-81.50537263,-11.93380181,-21.77921721,0,0,0.15590095
-1.01753909,0.010444663,-0.25100343,33.20776601,-21.22227672,23.93361584,0,0,0.652344783
-0.984089814,-0.08758956,-0.478754891,-3.180573471,-10.41699376,-4.358375384,0.159414618,0.22636586,0.138352254
-0.982880685,-0.04151273,-0.699154857,3.260438609,-29.10568985,-11.03237686,0.051106691,0.26819466,0
-0.756811385,-0.155653318,-0.531033202,-79.10563394,69.47376211,-24.00912268,0,0,0
-1.108142595,0.310791824,-0.06269787,-30.42443029,-24.85077912,-12.01222854,0,0,0.44475482
-0.96732663,0.048701903,-0.28271414,17.13868185,-27.84970336,21.92342227,0,0,0.723243501
-1.009548727,0.097581948,-0.401730232,-16.75075802,-15.68222345,0.962271499,0.068213018,0.267253767,0.207175728
-0.96133726,-0.041758144,-0.737672828,2.644327789,-32.6754878,-11.27032952,0,0.256441755,0
-0.957160556,0.248765788,-0.470171356,-23.00740381,225.6986736,-16.94561562,0,0,0
-1.007598692,-0.166524414,-0.197820494,31.17276996,-31.76279431,28.4035857,0,0,0.636590577
-0.987232155,-0.102547292,-0.413862401,8.6537735,-6.713560274,-1.176051177,0.039242925,0.072250135,0.680450736
-0.932564314,-0.072745266,-0.593088407,6.419516844,-22.53077523,-5.132317365,0.313297576,0.383098964,0
-0.877572963,0.019913319,-0.7702589,15.31114077,-36.60317742,-0.699497439,0,0,0
-1.059205224,0.077203902,-0.842971373,-108.7758702,147.4873272,-43.80415849,0,0,0
-1.059946168,-0.030808443,-0.174720418,3.840039719,-15.36323983,4.584008304,0,0,0.820564739
-1.045287328,-0.019899261,-0.399623645,-6.5907845,-2.160979678,-1.444026313,0,0,1.04608592
-0.961956486,-0.104929095,-0.486030087,-10.31290366,-21.11127064,-15.01046604,0.077585533,0.181369146,0.105216886
-0.881117793,0.020123726,-0.754103744,15.39751679,-25.06964827,-4.291659257,0,0,0
-1.019417974,-0.040031584,-0.951461551,-88.61323215,171.7914824,-5.838853635,0,0,0
-1.084733442,0.029621091,-0.173586846,12.87474047,-21.25266225,16.96508407,0,0,0.843051226
-1.021762422,-0.190612274,-0.42179433,10.16200322,-9.807824575,0.826929951,0,0,0.812288511
-0.981963871,-0.057762953,-0.519363527,-2.618333347,-11.95299053,-1.488132466,0.278392432,0.272908875,0
-0.925862753,-0.010325518,-0.682819073,2.417828871,-15.30121017,-8.816871544,0.0813845,0.150170518,0
-0.901432715,0.076522889,-0.860323744,69.59478817,-48.96998162,27.99337994,0,0,0
-0.842585026,0.088721231,-0.097292716,7.50637722,-3.781315732,21.51191904,0,0,0
-1.059551118,0.019197364,-0.31342983,5.918208618,-15.14302126,8.268238185,0,0,0.911136296
-1.079827591,-0.11125383,-0.440191773,-9.517694786,-7.010112749,-0.751307189,0,0,0.703166371
-0.953116131,-0.041571002,-0.447619639,11.79063574,-19.79010486,5.444896383,0.162554366,0.20216552,0.101160164
-0.957803572,0.009689933,-0.64144098,2.535559136,-10.57722741,-3.484811585,0,0.267026681,0
-0.898896203,0.041396724,-0.926341508,97.55118193,-67.64736669,50.66857605,0,0,0
-1.13976709,0.354542495,0.291548846,50.34703892,5.615474661,6.249781809,0,0,0
-1.246587972,0.170807112,-0.322755544,-23.24727923,-9.958694339,-4.750223851,0,0,0.626379279
-0.943419655,-0.039903022,-0.421624704,5.672980393,-12.60830384,5.357229904,0.127473025,0.179790525,0.347236985
-1.014463911,-0.052241572,-0.666809542,19.03841517,-21.75456044,3.474343915,0.401718512,0.384588131,0
-0.866259946,0.181483555,-0.761444031,160.0019046,21.22269457,72.07867249,0,0,0
-1.093836939,0.169200257,-0.199724159,-170.2031518,9.735769415,-84.53906371,0,0,0.305228845
-0.994799757,-0.019495026,-0.419983513,40.0003886,-24.49150139,28.83578673,0,0.049510363,0.488443383
-1.025261812,-0.049607114,-0.534428903,6.637755288,-12.55204436,-2.258561299,0.334181478,0.269114421,0
-0.837494719,0.092264479,-0.779155804,16.20815909,-51.96371923,-4.52560038,0,0,0
-1.068147213,0.288779841,-0.741708704,-106.2294491,164.3444481,-6.960086948,0,0,0
-1.049743781,0.078207064,-0.119374486,-3.790456018,-22.29686363,6.982515692,0,0,0.577964897
-1.099530036,-0.019116987,-0.370345812,-8.581258847,-14.79443447,-1.649011759,0,0,0.762714968
-1.089004974,-0.030673914,-0.410211544,-14.54288412,-0.638003407,-11.64386368,0.208430366,0.083682543,0.399926318
-1.020093084,-0.010413641,-0.605169169,7.712871909,-31.38024392,-8.609186033,0.338972859,0.261361463,0
-0.977358167,0.139222316,-0.685162894,14.82186625,-76.49683531,7.112218211,0,0,0
-0.790651829,0.197761397,-0.628555648,70.70132291,46.24721885,23.99414069,0,0,0
-1.03384082,-0.087651422,-0.205746772,-18.29419724,-20.59136434,-1.743134815,0,0,0.913217056
-1.004468769,-0.068625139,-0.40769361,24.74561318,-2.652173671,2.243874111,0.061884174,0.072756438,0.659524168
-0.977015597,-0.089471851,-0.568886234,-1.242660364,-16.66394162,-7.400034195,0.259505785,0.317443262,0
-0.896231432,0.061610721,-0.766236265,16.68230038,-30.30803676,-5.337851711,0,0,0
-1.151939288,-0.0510226,-0.949191998,-79.22061973,192.7269199,8.709168453,0,0,0
-1.05514549,0.029297588,-0.163560772,-7.094210141,-20.32531468,18.35008552,0,0,0.457899835
-0.984226337,-0.096539178,-0.37568066,-6.800148573,-20.08742776,4.185345872,0,0,0.583732525
-0.999471283,-0.051310188,-0.490536014,-3.663635558,-11.50932847,-1.339116723,0.14191834,0.391743664,0.14826386
-0.907774135,0.020050003,-0.725577555,5.377992076,-14.24348153,-9.184993909,0,0.2087549,0
-1.019877967,0.152789696,-0.249832759,-7.224840007,170.2565828,5.001857685,0,0,0
-1.175562409,0.050103988,-0.041795193,-17.45514407,-25.84998533,20.93106881,0,0,0.324872757
-1.130874567,0.029235632,-0.467055176,-75.31686118,-10.26833368,-28.72829237,0,0,0.555840196
-1.009520191,-0.00957674,-0.451429797,-0.76769879,-6.214734958,-2.459802796,0.168432383,0.288094654,0.18831399
-0.87988465,0.030694395,-0.667843098,9.835547959,-32.97024726,-9.763261844,0.194176325,0.240567576,0
-0.580995035,0.256575177,-0.665312393,1.78956637,90.95487607,-41.8493443,0,0,0
-1.048621189,-0.146357362,-0.029908629,-109.4023324,-17.75248364,-37.29465657,0,0,0.25510428
-0.984217392,0,-0.350127679,11.10970458,-22.86666658,9.423061573,0,0.127515645,0.661147332
-0.989141223,-0.009926067,-0.646086478,-1.856882191,-25.5308914,0.990736109,0.313666376,0.297791749,0
-0.868378297,0.195273087,-0.71445241,220.818796,-5.989783668,109.2178339,0,0,0
-0.900201228,0.099729339,-0.213868782,92.00714742,-8.921709393,27.70854919,0,0,0
-0.981955833,-0.060755864,-0.413314039,-8.964953428,-17.98197597,16.20900847,0,0.095833429,0.340900871
-0.968989826,-0.061541072,-0.513682504,3.153246417,-12.16610128,-3.455303092,0.312896826,0.415957127,0
-0.896843243,0.104727311,-0.710767511,20.84700819,-59.42763944,-12.63088932,0,0,0
-0.75223144,0.423182766,-0.572715858,91.24300579,29.92735417,21.16210671,0,0,0
-0.977138648,-0.071619104,-0.211454604,19.51011563,-26.83104514,6.081698408,0,0,0.770232639
-0.99698264,-0.080372796,-0.457601703,28.87681067,-13.50498814,-0.059117541,0.224223162,0.186028795,0.165410992
-0.993220424,-0.061703221,-0.75218657,4.435099722,-35.95368631,-14.2229519,0.152163852,0.171284592,0
-1.049158618,0.219328222,-0.837205609,63.48431548,173.0277713,24.77795268,0,0,0
-0.980960415,-0.009837644,-0.089806355,-45.8003873,-20.9787418,-3.892937133,0,0,0.381472029
-1.018015134,-0.071530119,-0.379651866,19.95445544,-16.69624596,6.471669124,0,0,0.930793772
-1.066006997,-0.028828118,-0.44752379,3.147491357,-10.48544847,-3.542810694,0,0.172580954,0.458084058
-0.965917858,0.029467571,-0.692413296,7.246327126,-19.66046035,-6.347473912,0,0.350799585,0
-0.876232374,0.160065923,-0.788890024,36.3840709,-64.69890371,20.86285242,0,0,0
-1.366206049,0.061458768,0.124969208,75.86577958,-4.979723467,34.69857638,0,0,0.077296179
-0.940687093,0.019405505,-0.309232605,18.2759618,-9.297312941,20.83306085,0,0,1.018896497
-0.835774359,-0.240911836,-0.638268934,8.850018832,-4.682328684,11.6300321,0,0,0.877036905
-1.048272176,0.096641147,-0.213044247,36.74926444,-13.46357794,20.54929322,0,0,0.543440842
-1.012050022,0.124681033,-0.306751433,1.021494316,-5.360441195,21.33581794,0,0,0.690294737
