accelX,accelY,accelZ,gyroX,gyroY,gyroZ,fsr1,fsr2,fsr3
-1.064446612,0.111588073,-0.383154188,3.655907075,-4.87912469,-5.877755883,0,0.095129055,0.324167762
-1.611540669,0.06244594,0.306094517,17.22854596,8.148083415,-4.961658182,0,0,0.213417809
-1.104937402,0.028775457,-0.23233186,0.176381967,-20.08400581,6.650847855,0,0,0.864784246
-0.946793526,-0.010131331,-0.425923992,-3.199639045,-9.185195369,0.465815674,0.182088665,0.447994068,0.174285178
-1.03881825,-0.079847049,-0.594660694,11.6891903,-13.36162227,3.239719966,0.325653046,0.534899474,0
-0.854214088,0.06788891,-0.820834489,-10.03700499,-41.78895995,-19.98083553,0,0,0
-0.766072201,0.250104142,-0.728486477,25.91480767,67.47359924,10.95091301,0,0,0
-0.997262363,0.019823134,-0.188397574,-9.4269328,-2.72147294,7.554426287,0,0,0.758751449
-1.034442657,-0.125401919,-0.388040342,-1.984228129,-16.72468878,0.738716888,0,0.051991921,0.844076666
-0.914875654,-0.108282253,-0.536089902,6.466072443,-18.78614335,-2.668552206,0.337391599,0.16789217,0
-0.911293863,-0.039856876,-0.773953162,-12.82307776,-17.22498044,-11.66972722,0,0,0
-0.68788037,-0.122747548,-1.004648506,-40.03466272,-43.63956831,-5.350205312,0,0,0
-1.048751153,0.232059196,-0.129545325,-49.39246076,-19.53801702,-10.53002962,0,0,0.570391984
-1.002201331,-0.029586236,-0.387047893,7.10943037,-16.75149012,8.611100855,0,0,0.855543463
-0.972369957,-0.038984982,-0.47337409,-11.41423124,-13.33347393,-3.429455992,0.253203738,0.276593882,0
-0.926456823,0.019733131,-0.683199023,9.96950312,-22.68645655,-6.263807268,0.070818267,0,0
-0.904630276,0.130544567,-0.781399931,76.97546674,-81.46294469,36.46788048,0,0,0
-0.939724163,0.257899058,0.076797819,-95.3479631,-15.58425095,-28.2109355,0,0,0.282354945
-1.029096291,0,-0.296021248,1.540676323,-20.47413646,9.318476259,0,0,0.813196986
-1.016117795,-0.041911638,-0.466059917,6.237275686,-4.296351801,1.066282676,0.221816758,0.303212855,0.077493552
-1.046077788,-0.039134906,-0.521055601,8.786126344,-16.85086757,-6.578491761,0.351586433,0.342880218,0
-0.862563712,0.057851215,-0.713421982,12.18788446,-46.23261413,-9.633241661,0,0,0
-0.865300838,0.335792789,-0.946532486,8.680463118,79.94921713,8.021058554,0,0,0
-1.014855218,-0.122241981,-0.405903557,25.52854481,-27.28996605,14.04488021,0,0,0.597116536
-1.013324997,-0.092877105,-0.449725671,36.73641282,-16.0082018,5.856526506,0.242411336,0.313508168,0
-0.88914997,-0.009905376,-0.812646277,0,-41.48968218,-6.077001291,0,0,0
-1.030698516,0.059269599,-1.010045783,-68.06240477,194.3550521,1.911110497,0,0,0
-1.088504796,0.188301935,-0.175071902,-26.5207384,-6.778823705,0.936855909,0,0,0.689120149
-1.002995764,-0.282077368,-0.446539766,-8.722314565,-15.28543772,2.836911876,0,0,0.586919518
-1.010819193,-0.049677122,-0.534811642,-1.270370445,-10.4467696,-0.548944302,0.281997604,0.231938011,0
-0.920457393,0.038514451,-0.719162836,-8.435765044,-28.60210875,-14.1302684,0,0,0
-0.867624412,0.04167197,-0.542066003,-15.71335131,41.49387851,-1.990437329,0,0,0
-0.857794883,0.173635025,-0.070965518,-61.86973001,3.061973121,-20.65807273,0,0,0.194715376
-1.067586062,-0.08731017,-0.308659754,18.12211468,-21.25872879,12.91183638,0,0,0.789291997
-1.026547716,0.107941488,-0.40327828,-14.23714756,2.108815077,-8.514226804,0,0.137537085,0.340925733
-0.957820742,-0.105357058,-0.485296303,23.50932686,-12.07897751,7.534702059,0.117411648,0.237644484,0
-1.006478736,-0.051224758,-0.544901796,-13.47101245,-6.097326703,-11.73614792,0.178005978,0.231561707,0.051445289
-0.85470893,0.030488398,-0.775528843,18.41699965,-34.47163819,-0.181308647,0,0,0
-1.035417635,0.222318138,-0.452067126,323.5668689,-20.29983228,117.2591527,0,0,0.444710313
-1.059811406,0.060340678,-0.330080977,-34.4141155,-5.537210761,-4.200594846,0,0.130701674,0.636353278
-0.920387971,-0.103614364,-0.478622196,4.927967125,-4.274782834,6.778758749,0.198645165,0.399887729,0.093169233
-0.89241481,0.088735414,-0.70246369,17.09921538,-37.08686514,-12.70886689,0,0,0
-1.171974454,0.371060369,-0.739025592,79.30732321,219.0675566,1.915323173,0,0,0
-1.094842705,-0.010043731,-0.219074929,25.7172695,-29.3536621,20.37029399,0,0,0.595274451
-1.047932729,-0.019938518,-0.371147696,6.435195988,-8.772876031,2.957285529,0,0,0.894135488
-1.014174203,-0.077677326,-0.419932776,-6.783779115,-4.641560604,-3.640240401,0.228080707,0.114154113,0.367555592
-0.970071293,-0.062210321,-0.662713551,-21.15483054,-21.95414834,-11.88427188,0.259292926,0.17551443,0
-1.095976275,0.068845919,-0.798176378,6.517637965,-77.11291977,13.84360804,0,0,0
-0.799384763,0.190273821,0.019749856,-84.99867765,-12.44992588,-21.6612028,0,0,0.154381162
-0.9866011,0.010157142,-0.252815868,31.91409052,-22.30541398,24.32992549,0,0,0.622334777
-0.972846457,-0.088982592,-0.460251259,-3.090172035,-10.97864883,-4.643100938,0.158954743,0.225255104,0.135815615
-0.996577471,-0.039431386,-0.662584095,3.34606611,-28.43192824,-10.97670398,0.051563625,0.262763955,0
-0.783104156,-0.155845452,-0.563068654,-81.76632415,68.5971181,-23.19954347,0,0,0
-1.120899333,0.315006389,-0.059124175,-32.67969384,-25.85062451,-11.67620157,0,0,0.474311721
-0.92284213,0.049718534,-0.282297061,17.27535932,-26.74995773,22.19727898,0,0,0.717884894
-1.035854407,0.09765969,-0.411398186,-16.56445011,-15.74899045,0.963634956,0.070423758,0.281478741,0.195427883
-0.96302262,-0.038109869,-0.710120569,2.656362145,-31.33057162,-12.21780292,0,0.26846753,0
-1.02775114,0.239956498,-0.461213465,-23.21673326,224.639795,-18.11799573,0,0,0
-1.014507933,-0.152271612,-0.202670836,33.37413757,-29.83192475,28.08101561,0,0,0.655034734
-0.988514147,-0.104796983,-0.441329388,8.008127,-6.837565104,-1.229271623,0.039774479,0.068708738,0.673284821
-1.0063292,-0.070996623,-0.579290914,6.30278156,-21.62383586,-5.234951527,0.313001838,0.385600565,0
-0.829184381,0.02077199,-0.764954688,15.52073636,-36.81714038,-0.697034293,0,0,0
-1.073263332,0.080887957,-0.818876036,-114.4151747,147.9895957,-45.50613989,0,0,0
-1.074388705,-0.028529404,-0.181070128,3.600503921,-16.54966735,4.407819519,0,0,0.861943246
-1.057634062,-0.019784232,-0.394561802,-6.606819981,-2.025689799,-1.374463089,0,0,0.986977635
-0.955680344,-0.1145826,-0.501585635,-10.01145127,-21.62691095,-14.06167551,0.080543263,0.190415635,0.105530931
-0.903391311,0.019423371,-0.797771834,15.81720327,-25.40555119,-4.12813319,0,0,0
-1.02959795,-0.040210857,-0.977342839,-87.44960328,177.5303818,-5.835573795,0,0,0
-1.032392032,0.030367835,-0.180719317,12.92547016,-22.09025953,16.47447161,0,0,0.806330026
-1.000693419,-0.206306444,-0.416337396,11.05394061,-10.14015069,0.782865482,0,0,0.843405496
-0.969392562,-0.061965705,-0.490640915,-2.871211454,-11.30616841,-1.571055356,0.278964523,0.26591008,0
-0.926036431,-0.010246131,-0.689994967,2.324141505,-16.35876145,-9.028266776,0.081633952,0.150557919,0
-0.934388454,0.077067713,-0.8173729,73.55347886,-47.2243089,26.85207766,0,0,0
-0.849044908,0.09040321,-0.102360404,7.200267195,-3.733871608,21.721218,0,0,0
-1.068365226,0.020169258,-0.321873782,6.275646817,-15.72131796,7.944784524,0,0,0.953603393
-0.985655691,-0.105371891,-0.427656657,-9.160966137,-6.968049885,-0.783558498,0,0,0.718050391
-0.981878963,-0.039885889,-0.469016861,11.13242969,-19.01077892,5.214603243,0.170826762,0.207194493,0.104923425
-0.963516262,0.010120177,-0.663359453,2.36876484,-11.07646328,-3.792649797,0,0.270263263,0
-0.880919343,0.041842486,-0.947029231,92.22920794,-66.7136401,51.43856954,0,0,0
-1.188864249,0.347588147,0.303886244,51.3422671,5.104487658,6.198326881,0,0,0
-1.16600685,0.173871602,-0.335891572,-24.65541694,-9.134471463,-4.390743073,0,0,0.637284829
-0.973954872,-0.038364234,-0.445741579,5.563547491,-12.5021129,5.566423468,0.124338103,0.181106378,0.328745889
-0.968519962,-0.050626513,-0.659858499,19.52960029,-21.22939471,3.296602273,0.417418408,0.395501811,0
-0.847685475,0.18035964,-0.778108815,154.2657755,21.1754588,74.60893729,0,0,0
-1.126585353,0.168158152,-0.218439119,-162.489803,9.962222592,-81.89112432,0,0,0.327149352
-0.938092484,-0.01917554,-0.41615383,41.67848024,-23.78356681,30.34849437,0,0.049721441,0.53304154
-1.020218085,-0.051041184,-0.572817082,6.933803741,-13.22413362,-2.227345125,0.334611121,0.265013234,0
-0.881852229,0.088403039,-0.782388631,15.36242902,-49.20691163,-4.618962073,0,0,0
-1.141729848,0.291501295,-0.72537082,-99.76187577,173.4660978,-6.879199546,0,0,0
-0.987956088,0.076251412,-0.114127034,-4.089150034,-22.73183606,6.603564073,0,0,0.580000667
-1.086977933,-0.020645435,-0.374906036,-8.280948489,-13.98986072,-1.588629943,0,0,0.77051952
-1.065165942,-0.030406902,-0.412735284,-14.48581274,-0.621187725,-12.29759272,0.198626054,0.082365256,0.401459855
-1.003873543,-0.010159367,-0.62928237,7.960707687,-31.33124535,-8.487158752,0.349526669,0.268747358,0
-0.949451636,0.140775195,-0.727128086,15.54951257,-71.47119604,7.026315442,0,0,0
-0.816121007,0.185855116,-0.642084203,73.51573119,49.65796275,23.49081646,0,0,0
-0.962565299,-0.088776821,-0.205388768,-17.93781657,-20.95983805,-1.726855151,0,0,0.872720361
-0.970494545,-0.069287949,-0.40760917,23.0981054,-2.685709504,2.315785853,0.062589139,0.069662954,0.650581815
-0.985915173,-0.08887193,-0.567904714,-1.314597282,-16.56814636,-7.847990887,0.25717153,0.307105229,0
-0.920977533,0.06121438,-0.736929966,16.19241388,-30.96133341,-5.793576905,0,0,0
-1.179489442,-0.048379335,-1.001302412,-78.26790156,196.0166636,9.357393487,0,0,0
-1.033730701,0.028582392,-0.166682376,-7.027834444,-19.8619326,18.33929284,0,0,0.468948492
-0.990533678,-0.095290713,-0.388104083,-6.995275877,-20.39219262,4.417711138,0,0,0.605047468
-1.013372492,-0.049654763,-0.5197011,-3.400588409,-12.08552,-1.344678188,0.141978936,0.396076995,0.142691595
-0.867540066,0.019777347,-0.767391233,5.5902606,-14.62700389,-9.129713075,0,0.205326374,0
-0.978598423,0.161347582,-0.249530974,-6.877566513,175.7690525,4.89247895,0,0,0
-1.203131613,0.048717356,-0.040419864,-17.75211168,-25.50819693,20.55505496,0,0,0.337747672
-1.041909942,0.03140537,-0.477348413,-80.67059678,-9.623497701,-28.65987108,0,0,0.576888433
-1.035920713,-0.009744979,-0.432346738,-0.814484713,-6.440055593,-2.302976482,0.168020377,0.307026908,0.180081932
-0.871621587,0.030883212,-0.679912621,9.395309237,-31.43805382,-10.36198735,0.19509143,0.234126613,0
-0.608602919,0.25579308,-0.710007678,1.666220534,88.65925769,-41.02029691,0,0,0
-1.011095495,-0.144355232,-0.029086356,-101.8989533,-17.83004049,-36.18475821,0,0,0.262327986
-0.97914141,0,-0.336362329,10.99192482,-22.31285598,9.366212187,0,0.133972006,0.652435185
-0.949210837,-0.009908131,-0.643339172,-1.705708547,-25.47369632,0.968850965,0.341203621,0.303339062,0
-0.856767304,0.202088045,-0.674783721,214.8184919,-6.019884326,109.9514866,0,0,0
-0.929633699,0.097710729,-0.230047021,94.72240464,-8.979864172,26.09032801,0,0,0
-1.001270839,-0.057081919,-0.438680224,-9.576353373,-18.28668428,15.39529153,0,0.100164631,0.331137039
-0.992104103,-0.06019801,-0.512280516,3.13875693,-12.82794346,-3.762018449,0.317352698,0.40485552,0
-0.8415817,0.1099892,-0.710402842,21.67933529,-61.30433677,-11.71757885,0,0,0
-0.727916506,0.406166061,-0.555347903,91.62135754,29.55230785,20.28827753,0,0,0
-1.036455395,-0.067610637,-0.204357755,19.65869817,-27.67487123,6.098467785,0,0,0.825987347
-0.994246323,-0.07748743,-0.442360072,28.96398471,-13.47791628,-0.060011218,0.240669699,0.174085693,0.17208282
-0.999775518,-0.057210731,-0.712695296,4.496774829,-35.9656203,-13.56578085,0.159537076,0.183393659,0
-0.963834618,0.213922082,-0.819116563,63.67965647,164.7308396,25.6529378,0,0,0
-0.954660403,-0.01034379,-0.093819909,-49.01733476,-20.22402685,-3.950204396,0,0,0.383291709
-1.102794341,-0.071263418,-0.39176728,21.41327998,-17.43970095,6.282517946,0,0,0.907687759
-1.024727726,-0.03043849,-0.46197662,3.186738502,-9.724297338,-3.704365588,0,0.162002841,0.43355485
-0.974221736,0.031132665,-0.690531696,7.433321226,-21.2593576,-6.545305094,0,0.366378304,0
-0.911553401,0.165513853,-0.823931283,36.79588341,-63.8788068,19.52707463,0,0,0
-1.328244817,0.059937366,0.125817566,75.92075144,-5.000861169,34.93126139,0,0,0.078540626
-0.922186313,0.019687562,-0.32359597,18.52997575,-9.595838326,20.2681471,0,0,0.970599187
-0.789654284,-0.236173243,-0.644118671,8.926660272,-4.427801232,12.40615514,0,0,0.854182201
-1.003324561,0.103635863,-0.201117758,37.59060384,-13.78633764,21.55024685,0,0,0.541083561
-1.004057769,0.125916764,-0.319871638,1.005619508,-5.398842548,21.87776156,0,0,0.666699102
