accelX,accelY,accelZ,gyroX,gyroY,gyroZ,fsr1,fsr2,fsr3
-0.904223997,0.039551892,-0.385452704,-26.16041395,14.11911665,-19.70585815,0,0,0
-0.699946156,0.039909301,-0.826667524,10.82173302,1.524260536,12.06247222,0,0,0
-0.987759127,0.020153567,-0.437223564,-35.40110982,-8.783263429,-4.903915076,0.156079712,0.315842956,0.050506822
-0.967945171,0,-0.506320698,-12.00763481,-21.87927305,-0.827346214,0.377798614,0.24384567,0
-0.835231756,-0.020309718,-1.105808823,138.5338997,-114.3529386,67.82916668,0,0,0
-0.948839963,0.161570974,-0.048178763,-38.18173773,-30.04302304,0,0,0,0.530289822
-0.977786351,-0.186933762,-0.35745971,54.88460935,-23.03065841,1.814975244,0,0,0.755537879
-0.983696357,-0.079098975,-0.626186689,21.78785179,-34.9631765,-7.859024981,0.272174581,0,0
-0.831152536,-0.291838762,-0.704900962,-20.60230702,-16.65401568,8.109028913,0,0,0
-1.010477042,0.240445179,-0.068320947,-2.889668201,-26.22830109,18.30192822,0,0,0.793987436
-0.898782392,-0.164053113,-0.423498429,10.71897582,-15.33257087,4.545494254,0,0,0.807998604
-0.910361954,-0.039574252,-0.56425162,-0.423382991,-13.35861181,-6.868080675,0.325151658,0.278938013,0
-1.001854882,0.040635925,-0.723955621,1.843267965,-51.4412411,-10.74256854,0,0,0
-0.967448041,0.322733115,-0.789648074,-100.6209837,150.3084494,-24.91964702,0,0,0
-1.038277375,-0.019672113,-0.266975404,30.72439066,-28.4725383,18.42957883,0,0,1.09322479
-1.037234576,-0.079632559,-0.474090132,10.50094768,-15.19938951,-1.166598767,0,0.091541095,0.400949224
-0.998923703,0.019954249,-0.672043371,6.443267855,-30.42678509,-14.60486827,0,0,0
-1.000251987,0.086477488,-0.576966359,-48.32807567,10.39785003,6.726208532,0,0,0
-0.996160088,0.176379315,-0.077942592,-63.00407191,-22.20519513,-16.30289226,0,0,0.61963293
-1.032420945,-0.14601799,-0.4487361,3.299032636,-11.16015163,-10.86417921,0,0,0.913548333
-0.970972331,-0.071171879,-0.528911035,13.39465237,-4.364100744,-0.241935979,0.389036897,0.304036843,0
-0.916007335,0,-0.69957236,6.28163284,-39.06314833,-15.12821671,0.087763206,0,0
-1.136707032,-0.029978272,-1.092179469,-91.59738111,213.2681063,-2.676010172,0,0,0
-0.99845717,-0.078833083,-0.165038034,-19.84114748,-23.21076079,2.427788182,0,0,0.956908103
-0.964297856,-0.047623155,-0.429447386,-5.78706369,-8.645010543,-2.846676288,0.268936466,0.040701482,0
-0.956260887,-0.030583145,-0.614245185,4.106437039,-16.05586406,-0.381967286,0.341465246,0.205991079,0
-1.000855488,-0.125993506,-0.21391863,34.62054277,-35.21987875,24.34917572,0,0,0.826120859
-0.980446072,-0.167686225,-0.428041038,21.8898297,-16.65250408,12.76914399,0,0,0.988486318
-1.048811732,-0.083317037,-0.491298674,11.01108723,-16.0748297,1.570150828,0.258411125,0.155086731,0
-0.923731072,0.010392442,-0.766786274,11.98065739,-40.84888783,-11.8659497,0.039089699,0,0
-0.912107619,-0.010279733,-0.704757781,9.185576042,-34.93730559,-9.487134099,0,0.115365089,0
-0.945212173,0.259982008,-0.422019703,6.555980027,212.713674,-33.67006662,0,0,0
-1.018426746,-0.028876284,-0.206065139,-38.98837286,-22.41279167,14.93405131,0,0,0.969557126
-1.001487283,-0.110052678,-0.406171717,6.19897772,-12.0011915,-5.281680313,0,0,0.769195153
-1.01754594,0,-0.624141728,5.296203689,-19.80644244,-9.056875696,0.323394763,0.238141886,0
-0.922431023,0.119031278,-0.727621369,6.882280156,-54.283527,-11.25777219,0,0,0
-0.698585533,0.349849985,-0.853356572,121.7821388,52.49119986,26.67032518,0,0,0
-1.03822901,-0.223107662,-0.3255175,4.285531626,-14.69691815,-2.305620128,0,0,1.109142342
-1.067367428,-0.047822885,-0.432616912,-8.134556809,-8.696861404,-12.34423931,0.175823155,0,0.381041093
-0.907767205,0.061752383,-0.678594339,-29.38252189,-17.57190678,-19.38500364,0.146566762,0.230873398,0
-0.886701705,0.009639244,-0.824062118,16.48259702,-40.38618783,2.267165568,0,0,0
-0.813607675,0.222143846,-0.819328239,-21.5378904,108.4169251,-3.799145561,0,0,0
-0.926031072,-0.092866736,-0.276971861,34.22252387,-18.88984179,22.62738968,0,0,1.06620107
-1.048513246,-0.09237458,-0.362967533,-7.69866453,-9.055177563,4.220876941,0,0,1.03278667
-1.059541036,-0.086065657,-0.454870995,5.269790997,-5.066901621,-4.659199692,0.195279169,0.27741958,0.27981468
-1.029328733,-0.052281053,-0.568555981,-0.296645474,-15.16571416,-8.458616991,0.350105973,0.403851933,0
-0.995227997,0.135146351,-0.742588859,27.32399338,-76.99448659,3.479748173,0,0,0
-0.603646929,0.172141488,-0.698588715,33.18351818,-4.020436707,23.82304138,0,0,0
-1.03699944,0.047907353,-0.149156664,-3.760233386,-15.40720543,7.48983704,0,0,0.967600529
-1.024035726,-0.066946183,-0.40522197,18.79184175,-8.433835375,4.428099773,0,0,0.617322088
-1.005597813,-0.030343587,-0.516283006,-4.792904074,-9.841710409,-1.662653156,0.30462752,0.308847866,0
-0.943181228,-0.019331499,-0.694624642,2.705146949,-18.71864702,-7.234596795,0.166304864,0.071932607,0
-1.125868002,0.153713874,-0.789767248,47.66424945,-103.2474739,26.23910101,0,0,0
-0.80428502,0.093993123,-0.159357134,-39.32489911,20.66248303,3.539270557,0,0,0.175995849
-0.977145759,-0.029362145,-0.245919315,-12.00519724,-19.65605792,7.429415325,0,0,0.970904492
-1.028856279,-0.077777312,-0.428196956,15.93888469,-11.40237143,0.754648708,0,0.10519759,0.667003845
-0.95882169,-0.069635265,-0.55774399,7.992381185,-17.9560164,0.720692398,0.325166217,0.415025772,0
-0.888812992,0.050263275,-0.7423458,13.7867251,-46.68353291,-6.323748899,0,0,0
-1.127020504,0.14797065,-0.876888284,-136.5556823,202.3054631,-31.32419267,0,0,0
-1.035755927,-0.08365909,-0.136067446,-11.18373393,-21.64619266,2.071073295,0,0,0.818965474
-1.026081927,-0.103085275,-0.315545424,9.054604678,-15.2176299,5.12579051,0,0,0.908914862
-1.022905882,-0.061556048,-0.467125405,10.3068151,-19.48851254,-2.956579239,0.194213938,0.272660072,0
-0.910412302,-0.050683394,-0.659150816,17.18012363,-23.25823021,1.592088872,0.278117895,0.120200615,0
-0.623882312,0.290553191,-0.637384087,-65.41924082,55.16344403,-48.75876217,0,0,0
-1.006405771,-0.443542641,-0.187306369,9.148748678,-29.23685082,23.33099789,0,0,0.115003334
-0.973720992,-0.071490856,-0.219006389,-9.661980797,-16.46805774,6.91084307,0,0,0.874694548
-1.024204003,-0.062068243,-0.445755207,33.75111289,-11.6283718,4.312855338,0.106180092,0.100286608,0.506902331
-0.999347438,-0.051861312,-0.584481619,-7.674985655,-18.11155656,-5.565962121,0.363443764,0.272343932,0
-0.778462593,-0.019329701,-0.83908429,33.24950928,-8.636446946,14.63027946,0,0,0
-0.953523522,0.252574093,-0.537406454,125.722039,4.916189619,39.11913472,0,0,0
-1.110946881,-0.019772105,-0.355658201,27.28401727,-19.88743605,43.92096731,0,0,0.706863027
-0.977587208,-0.117195644,-0.453329171,-9.889251172,-12.6940535,1.467720954,0.051833033,0.125702902,0.324623356
-0.969238907,0,-0.553662139,5.242675279,-19.74586452,-0.058432438,0.294705882,0.352964807,0
-0.893786748,0.040613317,-0.836384313,31.15570218,-42.38656695,2.185203563,0,0,0
-1.023258727,0.272693826,-0.662839468,17.8066652,121.29607,13.21518996,0,0,0
-1.146361139,-0.060802644,-0.203247422,-42.18115886,-10.13302484,-14.11409776,0,0,0.842261925
-1.073311815,-0.020160561,-0.112963935,-20.02931471,-1.127044647,-8.862756567,0,0,0.780647474
-1.000233846,0.029929814,-0.409600694,1.57457048,-9.670195188,-5.330209648,0,0.228937379,0.234652474
-0.947019334,0.057218724,-0.671939288,13.32874676,-33.47153257,-6.985962755,0.051209142,0.258640123,0
-0.862764096,-0.057819238,-0.901903234,33.6618576,-46.35817411,33.25049999,0,0,0
-0.940918673,0.050400506,-0.131032947,-58.45788149,-20.12237621,-7.014726742,0,0,0.433062206
-1.079453968,-0.010284697,-0.267013356,3.133779799,-12.99617567,2.974700471,0,0,0.958782592
-0.989181225,-0.058214121,-0.431300355,10.23838622,-5.788343823,0.696822445,0.114687127,0.176153272,0.398945113
-0.955448299,-0.038366496,-0.560534258,3.76219259,-16.70994655,-6.010268456,0.307051697,0.389514306,0
-0.881880656,0,-0.763067783,8.37150091,-25.49140948,0.731152941,0,0,0
-1.131585503,-0.080098584,-0.881730502,-81.19434839,216.3343687,10.57912872,0,0,0
-1.001294596,0.04752619,-0.18617898,13.36299553,-28.57193182,14.7205581,0,0,0.784489634
-0.957992614,-0.188674891,-0.394281614,-16.44494454,-14.30692607,-2.642862073,0,0,0.731210968
-0.993249102,-0.030834412,-0.518032315,16.4873374,-19.79645856,6.699171595,0.234664628,0.44681687,0
-0.932541617,0.051876346,-0.790824631,11.79140476,-22.79184785,-9.74204424,0,0,0
-1.377104903,0.038479718,-1.253576692,48.88096238,229.6603845,65.53931754,0,0,0
-1.128632598,0.099358299,-0.218536324,-18.54032268,-17.6358238,3.854537823,0,0,0.881125068
-0.983399549,-0.062522176,-0.420755768,50.12794669,-7.160622107,15.44403758,0.143104284,0.129573583,0.398190617
-0.937005055,-0.066649748,-0.621792482,-3.029119561,-26.08635012,-2.341232799,0.31628011,0,0
-0.845743434,0.067155445,-0.754424156,4.602366395,-41.73485733,-11.89323159,0,0,0
-1.177672024,0.128796858,-0.783692727,110.2289901,218.9152491,31.18203747,0,0,0
-1.043773713,0.010385973,-0.200092966,-56.61016539,-1.335203376,-10.26549894,0,0,0.602175852
-0.992241024,0,-0.334721727,19.76359195,-16.03788473,15.08643739,0,0,0.73146343
-0.897519082,-0.300914625,-0.430453385,-28.05364123,-9.461939878,11.73674329,0,0,0.739017158
-0.932025464,-0.080329736,-0.5567903,4.443462501,-15.81360634,2.498797544,0.253725085,0.241539404,0
-0.974849099,0.048835753,-0.670596469,0.241615107,-25.14080761,-8.754711456,0,0,0
-0.697721512,0.156400049,-0.436862622,-86.47286128,160.2083188,-53.77074879,0,0,0
-1.042231054,0.020071189,-0.145181983,35.28421108,-30.13769071,17.35316822,0,0,0.546367897
-1.055397667,0,-0.325260302,-16.57837276,-12.38383836,-0.380553988,0,0,0.725862472
-1.010867576,-0.078097355,-0.51732156,2.194608243,-9.339677064,-6.573537967,0.135016157,0.310243963,0
-1.009014807,0.019682205,-0.678638215,5.489425313,-28.32015532,-14.9360079,0.117572185,0.281929827,0
-0.962506296,0.512211861,-0.501675646,-70.42761063,226.9085312,-57.36312489,0,0,0
-1.093342398,-0.135106616,-0.173545995,10.79436897,-30.23875956,12.92324392,0,0,0.517850197
-1.037988457,-0.111086247,-0.362160053,9.802910297,-11.97768216,5.807286179,0,0,0.956229368
-1.041423918,-0.051770164,-0.451164012,25.97760291,-7.346064837,1.732345215,0.225804065,0.206025242,0.12197426
-0.885576545,-0.029281811,-0.617094369,-0.551949515,-20.21495569,-9.05632305,0.333534192,0.374509812,0
-0.833974343,0.09176704,-0.800717375,7.647944673,-34.28253257,-1.798842558,0,0,0
