accelX,accelY,accelZ,gyroX,gyroY,gyroZ,fsr1,fsr2,fsr3
-0.897545248,0.039183201,-0.416408957,-27.19185568,14.99863397,-19.33655822,0,0,0
-0.648331939,0.040416294,-0.875122426,10.43108469,1.49465198,11.09201508,0,0,0
-1.043206431,0.019115582,-0.410044687,-36.71833338,-8.817132148,-5.000006932,0.16724026,0.314671114,0.048526219
-0.947007463,0,-0.532186749,-11.81981825,-23.22848151,-0.782247914,0.349005424,0.24491992,0
-0.792909441,-0.020983716,-1.122016198,134.6264297,-118.5035101,66.69749675,0,0,0
-0.915387357,0.177622272,-0.048603823,-38.40194361,-31.12989631,0,0,0,0.496502603
-0.970361133,-0.195581698,-0.338663473,56.62425665,-21.63863167,1.911856519,0,0,0.755543803
-0.990848069,-0.082712909,-0.649683889,21.28119989,-32.34898441,-8.094877094,0.260818458,0,0
-0.88233956,-0.288451456,-0.703049873,-21.09019046,-17.33821045,7.894513967,0,0,0
-1.068008132,0.245152356,-0.071046036,-2.803275529,-25.08319487,18.69843904,0,0,0.732310229
-0.95544416,-0.159659414,-0.449538488,11.51636078,-14.0897175,4.609352555,0,0,0.784068556
-0.902155454,-0.041246549,-0.581292859,-0.448791039,-13.33844395,-7.115428729,0.31863677,0.271267814,0
-0.980748983,0.038799418,-0.705791941,1.773260036,-56.44873476,-11.50310901,0,0,0
-0.969549221,0.307634334,-0.794784202,-102.9535581,137.2344392,-26.01269831,0,0,0
-1.092541817,-0.020131935,-0.263704886,29.45773441,-28.7664162,18.80234124,0,0,1.090880999
-0.963281512,-0.079947402,-0.454395782,10.23211245,-15.14605368,-1.133492102,0,0.086265449,0.408825863
-0.950024544,0.020828399,-0.687993656,6.052934852,-29.17694069,-14.30173295,0,0,0
-0.933120848,0.08636076,-0.588099166,-47.46946776,10.89367798,7.155309984,0,0,0
-0.985368504,0.163119452,-0.076669164,-68.95306944,-23.1069279,-16.87014848,0,0,0.645029596
-1.055299912,-0.133188056,-0.438599311,3.306335083,-12.26689951,-10.68806497,0,0,0.920733682
-0.920025979,-0.073182354,-0.565089745,12.9454885,-4.315938554,-0.244877772,0.396111247,0.285384344,0
-0.944593694,0,-0.732126091,6.199912141,-36.62509707,-15.52834076,0.089152667,0,0
-1.237230972,-0.030736702,-1.142925074,-97.47508606,228.3675179,-2.661056832,0,0,0
-1.02244305,-0.08048919,-0.159145433,-19.78593587,-23.37316974,2.369043881,0,0,0.91411794
-0.944422105,-0.047819351,-0.412033717,-5.86341769,-9.427944022,-2.859694451,0.277674811,0.039709809,0
-0.955656904,-0.029750123,-0.59292216,3.969226124,-15.92497341,-0.381363507,0.344630149,0.207345257,0
-1.004578377,-0.135677898,-0.210627894,35.16690078,-35.65864417,24.83256463,0,0,0.899004285
-0.980044349,-0.17402894,-0.425491379,23.05094168,-16.61631947,12.15269514,0,0,0.996658832
-0.950353437,-0.079471657,-0.513331961,11.21732067,-17.05961379,1.705560698,0.270238398,0.154534353,0
-0.936552327,0.009942743,-0.707276196,11.38752319,-37.1627102,-12.12326271,0.038387604,0,0
-0.922359709,-0.009997941,-0.698114833,9.277226977,-36.43736655,-8.821380554,0,0.110766815,0
-0.975173082,0.243705264,-0.423058034,6.177570673,204.3401956,-33.69169269,0,0,0
-1.058530999,-0.029711855,-0.192076327,-38.509669,-22.77360915,15.65035991,0,0,0.91005653
-1.049529066,-0.105652715,-0.409955186,6.032803507,-11.25948924,-5.270747464,0,0,0.767115034
-0.94103172,0,-0.598365818,5.439257856,-18.7877695,-9.050530018,0.323125905,0.259234298,0
-0.916537278,0.123154593,-0.713736421,6.654472197,-51.92809406,-10.9939968,0,0,0
-0.699682023,0.3381703,-0.867037365,118.5769595,54.40238157,25.48045041,0,0,0
-0.993407239,-0.224559523,-0.311649608,4.267202573,-14.8900621,-2.315069508,0,0,1.105818818
-1.050713968,-0.051107399,-0.465736039,-8.155739398,-8.256421993,-12.51632838,0.166376496,0,0.365517375
-0.944233408,0.061879852,-0.690981789,-29.74763485,-16.95510624,-20.40180868,0.152255508,0.214556146,0
-0.883995024,0.009972876,-0.787624646,15.77340818,-37.94024271,2.301537517,0,0,0
-0.775115102,0.238496642,-0.771366903,-21.4028849,110.9576439,-3.850051512,0,0,0
-0.938151977,-0.090920452,-0.265584411,34.63113044,-18.76781656,20.55662011,0,0,1.056881428
-1.069100279,-0.093871365,-0.359139961,-7.833790795,-8.631950193,4.159083831,0,0,1.087875679
-1.066035134,-0.094071385,-0.473577027,5.3391209,-5.263932203,-4.426103119,0.199098609,0.263103745,0.259211892
-0.977612181,-0.05130088,-0.570941834,-0.307775745,-14.89938728,-8.184042711,0.342045976,0.417622542,0
-1.046067874,0.142890364,-0.723249379,27.54047244,-80.95879127,3.47500986,0,0,0
-0.618644224,0.183300351,-0.705862598,33.28964651,-4.339401449,23.02693191,0,0,0
-1.019799285,0.052438211,-0.152163797,-3.656630235,-16.67013036,7.280471876,0,0,0.970909392
-1.047632741,-0.068068485,-0.382562687,18.01398735,-8.742326797,4.342332888,0,0,0.633634741
-1.032515478,-0.02991974,-0.476115394,-5.12353557,-9.924619505,-1.61747752,0.293065324,0.330073212,0
-0.904109774,-0.020874827,-0.702696409,2.832556669,-20.09212219,-7.188208225,0.159820448,0.071812505,0
-1.04886008,0.167479144,-0.840258251,44.09602134,-99.94841692,24.77372875,0,0,0
-0.800664888,0.094175031,-0.156950478,-42.54053468,22.6191875,3.559593465,0,0,0.17781101
-0.993805781,-0.030123101,-0.243662498,-12.16799399,-20.28058753,7.734373745,0,0,0.914175855
-1.022299385,-0.076900711,-0.422144531,15.64734155,-11.81134564,0.752075108,0,0.106479067,0.669921102
-0.930699779,-0.070724713,-0.580775607,8.322252731,-16.8013981,0.708690865,0.323629717,0.412567566,0
-0.899735503,0.052179357,-0.731816077,13.8360519,-47.06369999,-6.464586217,0,0,0
-1.080183008,0.154066145,-0.920521316,-138.2489768,205.046052,-32.54738942,0,0,0
-1.129852545,-0.076856039,-0.139121386,-12.08678596,-21.32034279,1.969214399,0,0,0.862149797
-1.057825154,-0.103728778,-0.323508637,8.893134018,-14.63383676,5.316024866,0,0,0.890468799
-1.039309058,-0.060239308,-0.495089759,10.22295725,-19.35293283,-2.923754278,0.190752494,0.256605741,0
-0.884942627,-0.047765223,-0.645654355,17.27825329,-24.75151264,1.522627286,0.283368198,0.122794477,0
-0.64773284,0.31030654,-0.666300601,-69.04792508,52.31845136,-49.12252661,0,0,0
-0.963232573,-0.444421817,-0.180094676,9.257532779,-27.70194018,23.212802,0,0,0.106702291
-1.015723207,-0.070189644,-0.209140013,-9.70063534,-17.03105702,6.497723894,0,0,0.875369554
-1.043723961,-0.060396026,-0.422274961,33.92037213,-11.32909191,4.589368928,0.111541134,0.09848315,0.519087551
-0.988097456,-0.050655867,-0.604539249,-7.701951958,-19.22383734,-5.73599006,0.384572559,0.28529635,0
-0.77479017,-0.020498432,-0.885337246,32.26623954,-9.122968717,14.32928017,0,0,0
-0.981140129,0.247735428,-0.533610737,130.7806184,4.76319344,40.75800056,0,0,0
-1.036512579,-0.020906588,-0.334398292,26.69294703,-21.27822208,41.67516265,0,0,0.65822028
-1.050603781,-0.124138012,-0.467767833,-9.652240657,-12.54104992,1.404671602,0.050574336,0.121527426,0.304215834
-0.964974402,0,-0.576818035,5.487489217,-19.12502008,-0.058037676,0.283864533,0.342813245,0
-0.907743454,0.039706136,-0.815945921,29.50202225,-42.59346846,2.255833919,0,0,0
-0.969785028,0.258492265,-0.62379801,19.2805976,127.4343634,13.09116737,0,0,0
-1.144426681,-0.061472814,-0.203804973,-40.9695278,-10.01216352,-15.51551784,0,0,0.871758612
-1.013578953,-0.02004624,-0.107934052,-19.96327205,-1.157778037,-8.897544083,0,0,0.765439849
-1.024582706,0.028965813,-0.445643876,1.593806559,-9.476978942,-5.597164292,0,0.233649192,0.246927743
-0.915908888,0.062945208,-0.699808248,13.50477486,-34.15927048,-6.46432343,0.051568953,0.256675121,0
-0.870276477,-0.062967021,-0.854032329,33.44867587,-44.8166141,34.56205366,0,0,0
-0.98694606,0.047726329,-0.132564104,-59.53585912,-20.0620975,-6.771362255,0,0,0.413125802
-1.106243073,-0.010090543,-0.276964759,2.895991417,-13.216386,3.010489876,0,0,0.950296886
-1.018211069,-0.062423327,-0.418469875,10.69950155,-5.710902005,0.696608774,0.109067736,0.177698314,0.375603803
-1.004656932,-0.039520631,-0.551654978,3.559437085,-17.28153533,-5.994054581,0.32317098,0.38359359,0
-0.883288983,0,-0.71228629,9.084261546,-26.68593617,0.714166146,0,0,0
-1.181916512,-0.078902295,-0.964828471,-79.59818227,199.0881404,10.60154936,0,0,0
-1.046234515,0.048500196,-0.185356824,14.44394914,-28.64856934,15.07791906,0,0,0.824440738
-0.943778968,-0.176445913,-0.366930159,-17.47957493,-14.44104833,-2.873613595,0,0,0.770219084
-0.959900271,-0.031309139,-0.52254118,15.38168742,-19.98990107,6.266757713,0.225002029,0.449003865,0
-0.915343783,0.049477413,-0.74448645,10.92548595,-22.18034753,-9.192035054,0,0,0
-1.3831857,0.038948752,-1.255577914,46.8636669,238.3610392,65.805939,0,0,0
-1.153245342,0.098258554,-0.202239128,-17.69542488,-17.4959959,3.795611578,0,0,0.855989761
-1.05591928,-0.061965327,-0.43059046,48.71377125,-7.114177053,14.92071368,0.143188912,0.130171237,0.416799337
-0.891101802,-0.0672926,-0.628592266,-3.17544425,-26.03728096,-2.299290533,0.295669415,0,0
-0.863858316,0.067420226,-0.777000203,4.436737808,-44.98345175,-11.62949484,0,0,0
-1.22350294,0.135246494,-0.796533018,110.8206037,209.8599111,29.91308095,0,0,0
-1.002695224,0.01006172,-0.215526083,-53.80002966,-1.243051886,-10.31693744,0,0,0.644058872
-0.983082086,0,-0.36109799,19.37926533,-17.39790008,14.71528354,0,0,0.778066331
-0.909547057,-0.31535566,-0.428069772,-29.56283691,-9.472316191,10.79308087,0,0,0.768202954
-0.917329711,-0.077624144,-0.570388615,4.180337805,-16.02457657,2.621378251,0.264906137,0.250328944,0
-0.957662176,0.048343804,-0.688688214,0.245165461,-24.92989727,-8.456197841,0,0,0
-0.710977656,0.145781662,-0.443372856,-88.3912856,157.1312626,-53.9648971,0,0,0
-1.048955371,0.020799791,-0.143712914,34.50921057,-28.04129085,18.05595808,0,0,0.549942814
-1.025091855,0,-0.344639213,-15.861341,-11.90136908,-0.355782875,0,0,0.690115999
-0.975566411,-0.077426045,-0.48966888,2.288123274,-9.349421386,-6.826878979,0.146816267,0.307926337,0
-1.023814172,0.019158432,-0.687891103,5.038376459,-28.30655196,-14.34812073,0.1214319,0.293111013,0
-0.922109739,0.472942251,-0.500376872,-69.76079137,222.2429426,-57.0354167,0,0,0
-1.07142152,-0.136328219,-0.173399361,10.90482254,-28.51259053,12.54674868,0,0,0.539040143
-0.959986987,-0.110589963,-0.336318665,9.69922842,-13.01179284,6.202743724,0,0,0.946487293
-1.014077073,-0.049428213,-0.48816565,26.65007544,-7.642631656,1.78539751,0.221301173,0.200376809,0.120123384
-0.931947812,-0.029229184,-0.605916218,-0.554837362,-19.48621054,-8.879531724,0.342073846,0.379914781,0
-0.813435701,0.091212192,-0.827293176,7.930973357,-36.26746816,-1.838145774,0,0,0
