accelX,accelY,accelZ,gyroX,gyroY,gyroZ,fsr1,fsr2,fsr3,fsr4,label
-0.05,0.02,-1.24,2.69,0.18,-0.18,0.00,0.00,0.00,0.00,2
-0.05,0.02,-1.25,2.87,0.06,-0.67,0.00,0.00,0.00,0.00,2
-0.30,-0.61,-0.58,-7.87,-26.98,-21.42,0.00,0.00,0.00,0.00,2
0.20,-0.93,-0.78,22.09,-27.40,77.70,0.22,0.40,0.00,0.00,2
0.39,-1.29,-1.05,-38.70,69.46,-24.17,0.59,0.00,0.09,0.00,2
-0.27,-0.92,-0.48,1.89,3.54,-0.85,0.43,0.22,0.00,0.10,2
-0.29,-0.93,-0.45,2.32,-1.77,2.50,0.41,0.21,0.00,0.20,2
0.29,-0.59,-0.56,34.30,-0.92,54.26,0.32,0.35,0.00,0.00,2
0.44,-1.98,-1.12,-54.69,154.66,38.76,0.26,0.37,0.00,0.18,2
-0.13,-0.91,-0.48,-0.49,-19.23,0.18,0.41,0.17,0.00,0.18,2
-0.30,-0.93,-0.46,3.17,-1.04,-1.65,0.57,0.26,0.09,0.00,2
-0.31,-0.92,-0.45,3.05,-0.67,0.85,0.58,0.28,0.10,0.00,2
-0.31,-0.92,-0.45,2.75,-0.06,-0.73,0.56,0.25,0.09,0.00,2
-0.30,-0.93,-0.45,2.44,0.00,-1.22,0.54,0.23,0.08,0.00,2
-0.31,-0.92,-0.44,2.81,-0.24,-1.04,0.51,0.21,0.07,0.13,2
-0.31,-0.93,-0.44,3.11,0.24,-0.79,0.50,0.22,0.06,0.15,2
-0.32,-0.92,-0.44,2.99,-0.12,-0.24,0.51,0.22,0.06,0.13,2
-0.31,-0.93,-0.44,3.30,-0.12,-0.12,0.50,0.22,0.06,0.16,2
-0.31,-0.92,-0.45,2.81,-0.49,-0.73,0.50,0.22,0.06,0.13,2
-0.31,-0.93,-0.45,2.62,0.31,-0.55,0.51,0.23,0.07,0.10,2
-0.31,-0.93,-0.44,2.99,0.06,-0.55,0.55,0.26,0.08,0.13,2
-0.30,-0.92,-0.45,3.05,0.37,-0.55,0.51,0.24,0.06,0.12,2
-0.31,-0.92,-0.45,2.87,0.37,-0.85,0.56,0.27,0.08,0.13,2
-0.30,-0.93,-0.45,2.69,0.37,-0.61,0.52,0.25,0.07,0.11,2
-0.31,-0.93,-0.45,3.17,0.06,-0.79,0.51,0.25,0.07,0.11,2
-0.31,-0.93,-0.45,3.30,0.37,-0.61,0.51,0.25,0.07,0.11,2
-0.31,-0.93,-0.45,2.93,0.12,0.12,0.51,0.25,0.07,0.12,2
0.24,-0.98,-0.89,31.25,9.16,16.72,0.51,0.54,0.09,0.00,2
0.51,-1.21,-0.61,-53.53,-24.23,-118.41,0.31,0.23,0.00,0.17,2
-0.34,-0.91,-0.40,5.25,-5.00,0.98,0.41,0.14,0.00,0.20,2
-0.29,-0.94,-0.43,2.81,-0.49,-0.18,0.52,0.22,0.07,0.00,2
-0.28,-0.93,-0.42,3.05,0.31,0.31,0.55,0.25,0.09,0.00,2
-0.27,-0.94,-0.43,2.87,0.00,-0.24,0.55,0.26,0.10,0.00,2
-0.28,-0.94,-0.43,3.05,-0.61,-0.06,0.56,0.26,0.10,0.00,2
-0.28,-0.93,-0.43,2.93,0.12,-0.73,0.57,0.27,0.10,0.00,2
-0.28,-0.93,-0.44,2.44,0.43,-0.79,0.61,0.29,0.12,0.00,2
-0.28,-0.94,-0.42,0.73,-1.89,-1.22,0.56,0.25,0.10,0.00,2
-0.28,-0.94,-0.40,3.11,-1.83,0.31,0.55,0.22,0.09,0.16,2
-0.29,-0.94,-0.40,1.22,0.37,-0.06,0.48,0.31,0.00,0.21,2
-0.27,-0.95,-0.40,2.93,0.06,0.24,0.62,0.27,0.10,0.11,2
-0.26,-0.95,-0.41,3.66,-0.67,1.34,0.66,0.31,0.12,0.00,2
-0.25,-0.95,-0.42,2.87,0.12,-1.10,0.68,0.31,0.15,0.00,2
-0.27,-0.94,-0.40,2.69,0.61,-1.83,0.64,0.27,0.12,0.07,2
-0.27,-0.94,-0.40,2.62,0.00,-0.67,0.65,0.27,0.12,0.13,2
-0.27,-0.95,-0.40,2.75,0.06,-0.37,0.66,0.29,0.13,0.15,2
-0.27,-0.94,-0.41,2.44,-0.49,-0.18,0.65,0.28,0.13,0.17,2
-0.28,-0.94,-0.40,3.17,-0.55,-2.01,0.60,0.26,0.11,0.17,2
-0.28,-0.94,-0.41,2.99,0.18,-0.24,0.56,0.22,0.08,0.18,2
-0.28,-0.94,-0.41,3.05,0.37,-0.49,0.54,0.21,0.08,0.22,2
-0.28,-0.94,-0.40,3.42,-0.49,-0.79,0.53,0.20,0.07,0.25,2
-0.29,-0.94,-0.40,2.69,0.24,-0.55,0.55,0.22,0.07,0.25,2
-0.29,-0.95,-0.40,3.42,-0.73,-1.10,0.50,0.18,0.05,0.25,2
-0.29,-0.94,-0.40,3.05,-0.55,-0.49,0.39,0.13,0.00,0.17,2
-0.29,-0.94,-0.41,2.81,-0.37,0.06,0.49,0.19,0.04,0.23,2
-0.29,-0.94,-0.41,2.81,-0.55,-0.49,0.49,0.19,0.05,0.23,2
-0.28,-0.94,-0.40,3.11,-0.18,-0.85,0.50,0.20,0.05,0.23,2
-0.27,-0.94,-0.41,3.66,1.04,-1.83,0.52,0.20,0.06,0.24,2
-0.24,-0.98,-0.53,26.67,8.73,28.14,0.12,0.00,0.00,0.00,2
-0.00,-1.06,-0.29,14.47,105.35,45.96,0.00,0.00,0.00,0.00,2
-0.26,-0.94,-0.33,-2.75,-2.56,-3.85,0.40,0.12,0.00,0.69,2
-0.30,-0.94,-0.35,9.46,5.31,2.32,0.48,0.17,0.00,0.52,2
-0.29,-0.95,-0.40,5.62,-0.92,0.12,0.58,0.27,0.05,0.23,2
-0.27,-0.94,-0.42,3.42,-0.24,-1.04,0.59,0.29,0.07,0.14,2
-0.28,-0.94,-0.42,3.42,0.31,-0.18,0.60,0.30,0.07,0.12,2
-0.28,-0.94,-0.42,3.11,0.31,-0.31,0.61,0.31,0.08,0.10,2
-0.31,-0.93,-0.43,17.88,26.25,4.70,0.58,0.00,0.09,0.00,2
-0.28,-0.93,-0.43,2.62,-0.43,-0.37,0.56,0.46,0.12,0.00,2
-0.27,-0.94,-0.43,2.62,-0.37,-1.10,0.63,0.34,0.13,0.00,2
-0.28,-0.94,-0.44,2.56,0.85,0.24,0.66,0.29,0.15,0.00,2
-0.27,-0.95,-0.44,2.87,0.24,-0.67,0.63,0.31,0.14,0.06,2
-0.28,-0.95,-0.44,3.60,0.43,-0.79,0.58,0.31,0.12,0.07,2
-0.27,-0.93,-0.45,3.42,1.53,-0.43,0.58,0.32,0.12,0.08,2
-0.28,-0.94,-0.45,3.97,0.31,-0.98,0.59,0.32,0.13,0.06,2
-0.27,-0.93,-0.44,2.56,-0.12,-1.40,0.59,0.33,0.13,0.06,2
-0.27,-0.94,-0.45,3.11,-0.06,-0.49,0.59,0.33,0.13,0.07,2
-0.27,-0.94,-0.44,2.81,0.06,-0.73,0.60,0.34,0.13,0.06,2
-0.28,-0.94,-0.44,2.69,0.55,-0.79,0.60,0.34,0.13,0.07,2
-0.29,-0.94,-0.44,2.81,0.37,-0.67,0.59,0.34,0.12,0.11,2
-0.28,-0.93,-0.44,3.11,-0.12,-0.79,0.59,0.32,0.12,0.14,2
-0.27,-0.94,-0.44,3.17,0.00,-0.49,0.58,0.32,0.12,0.15,2
-0.28,-0.94,-0.44,3.36,0.31,-0.98,0.58,0.33,0.12,0.12,2
-0.28,-0.93,-0.44,3.05,-0.73,-0.73,0.58,0.33,0.12,0.12,2
-0.29,-0.94,-0.44,2.69,-0.06,-1.40,0.57,0.32,0.11,0.17,2
-0.29,-0.94,-0.44,2.56,-0.43,-0.92,0.56,0.32,0.10,0.17,2
-0.29,-0.93,-0.44,2.56,0.00,-1.04,0.55,0.31,0.09,0.17,2
-0.29,-0.93,-0.44,3.42,0.00,-1.22,0.53,0.29,0.08,0.18,2
-0.29,-0.93,-0.44,3.23,-1.16,0.24,0.54,0.30,0.09,0.19,2
-0.28,-0.94,-0.45,3.11,-1.16,-0.43,0.55,0.32,0.09,0.12,2
-0.27,-0.94,-0.45,2.20,0.67,-1.89,0.54,0.31,0.10,0.09,2
-0.29,-0.93,-0.45,2.26,-1.65,-0.37,0.54,0.31,0.09,0.13,2
-0.28,-0.94,-0.45,2.99,-0.18,0.12,0.55,0.31,0.09,0.14,2
-0.29,-0.94,-0.45,3.11,0.49,-0.49,0.56,0.32,0.10,0.13,2
-0.28,-0.94,-0.45,2.75,0.92,-0.79,0.56,0.32,0.10,0.15,2
-0.28,-0.94,-0.44,2.56,0.31,-0.85,0.56,0.32,0.10,0.16,2
-0.27,-0.94,-0.45,2.75,-0.24,-0.55,0.56,0.32,0.10,0.15,2
-0.29,-0.94,-0.44,2.87,-0.24,-0.37,0.56,0.31,0.10,0.16,2
-0.28,-0.93,-0.44,2.62,-0.79,-0.06,0.56,0.31,0.10,0.16,2
-0.29,-0.94,-0.44,3.05,0.06,0.00,0.60,0.34,0.11,0.20,2
-0.27,-0.94,-0.43,2.26,-0.31,0.12,0.58,0.32,0.11,0.21,2
-0.28,-0.94,-0.43,-1.40,2.75,-1.40,0.55,0.30,0.09,0.20,2
-0.28,-0.95,-0.31,-3.23,1.53,8.54,0.63,0.25,0.12,0.50,2
-0.20,-0.96,-0.37,11.72,-4.27,-1.53,0.91,0.41,0.27,0.20,2
-0.15,-0.94,-0.50,5.25,-0.12,-4.33,0.90,0.53,0.28,0.00,2
-0.24,-0.94,-0.48,-1.65,4.27,-10.62,0.61,0.36,0.14,0.00,2
-0.32,-0.94,-0.40,9.34,-9.70,16.91,0.33,0.13,0.00,0.53,2
-0.00,-0.90,-0.55,-3.60,8.85,-17.27,0.84,0.56,0.28,0.00,2
-0.39,-0.92,-0.35,4.58,15.14,0.92,0.27,0.09,0.00,0.62,2
-0.10,-0.95,-0.51,12.70,-1.16,21.73,0.87,0.50,0.25,0.00,2
-0.21,-0.93,-0.42,3.48,41.75,-9.46,0.42,0.20,0.00,0.20,2
-0.38,-0.92,-0.29,1.10,7.32,5.00,0.19,0.00,0.00,0.73,2
-0.41,-0.91,-0.32,6.71,-21.67,-6.59,0.27,0.15,0.00,0.77,2
-0.27,-0.87,-0.64,13.61,0.18,31.25,0.00,0.00,0.00,0.00,2
-0.60,-0.72,-0.48,38.39,125.18,58.65,0.00,0.00,0.00,0.00,2
-0.18,-0.93,-0.39,11.96,4.27,4.09,0.52,0.31,0.00,0.51,2
-0.14,-0.70,-0.55,-19.35,0.55,-59.27,0.00,0.00,0.00,0.00,2
-0.29,-0.95,-0.34,2.87,6.29,3.60,0.61,0.26,0.05,0.46,2
-0.31,-1.03,-0.50,26.61,-13.37,23.38,0.45,0.23,0.00,0.00,2
-0.17,-0.83,-0.53,-5.92,-17.52,-4.88,0.00,0.00,0.00,0.00,2
-0.31,-0.94,-0.33,0.24,6.41,-0.73,0.33,0.16,0.00,0.72,2
-0.27,-0.94,-0.42,11.05,3.30,1.95,0.30,0.16,0.00,0.42,2
-0.29,-0.93,-0.40,1.10,0.98,-0.73,0.49,0.28,0.00,0.10,2
-0.29,-0.94,-0.43,1.28,0.98,-0.37,0.47,0.28,0.00,0.06,2
-0.26,-0.94,-0.42,3.36,-0.12,-0.98,0.50,0.29,0.00,0.31,2
-0.27,-0.94,-0.42,2.26,-2.01,-2.14,0.47,0.28,0.00,0.27,2
-0.29,-0.93,-0.44,3.66,-0.18,-0.12,0.47,0.29,0.00,0.25,2
-0.27,-0.93,-0.45,3.48,-0.12,-0.85,0.52,0.33,0.00,0.17,2
-0.28,-0.93,-0.44,2.75,-0.31,-0.92,0.49,0.31,0.00,0.12,2
-0.28,-0.94,-0.46,3.05,0.12,-0.73,0.48,0.31,0.00,0.13,2
-0.29,-0.93,-0.44,2.50,1.28,-0.92,0.44,0.27,0.00,0.23,2
-0.32,-0.93,-0.43,2.01,-1.46,-1.53,0.42,0.23,0.00,0.28,2
-0.29,-0.93,-0.42,3.48,0.18,1.95,0.46,0.27,0.00,0.18,2
-0.29,-0.93,-0.43,3.72,0.61,-0.12,0.47,0.28,0.00,0.14,2
-0.28,-0.93,-0.44,2.01,-0.55,-2.87,0.47,0.29,0.00,0.13,2
-0.30,-0.94,-0.43,3.17,-0.61,-0.18,0.45,0.28,0.00,0.22,2
-0.30,-0.93,-0.43,3.42,-0.49,-0.49,0.45,0.29,0.00,0.22,2
-0.27,-0.96,-0.44,-3.85,-3.91,2.20,0.57,0.24,0.08,0.10,2
-0.24,-0.97,-0.39,3.78,-4.39,0.55,0.78,0.37,0.20,0.00,2
-0.24,-0.97,-0.40,2.50,-1.46,-0.92,0.85,0.40,0.23,0.00,2
-0.25,-0.96,-0.42,6.53,15.38,1.28,0.87,0.23,0.25,0.00,2
-0.25,-0.94,-0.39,3.05,0.12,-1.59,0.91,0.17,0.27,0.00,2
-0.26,-0.96,-0.40,6.77,5.07,-1.65,0.85,0.00,0.22,0.00,2
-0.29,-0.94,-0.40,3.66,3.97,-1.16,0.67,0.00,0.13,0.00,2
-0.29,-0.94,-0.42,2.20,0.31,-1.83,0.66,0.00,0.13,0.00,2
-0.29,-0.94,-0.42,1.83,-1.83,-0.06,0.64,0.00,0.13,0.00,2
-0.29,-0.93,-0.42,3.17,3.60,0.06,0.71,0.00,0.17,0.00,2
-0.28,-0.94,-0.42,3.17,0.06,-0.73,0.72,0.00,0.17,0.00,2
-0.16,-0.97,-0.28,-18.31,-26.06,-0.43,0.67,0.00,0.17,0.00,2
-0.28,-0.95,-0.39,2.01,1.04,-0.79,0.68,0.04,0.17,0.22,2
-0.28,-0.94,-0.39,3.60,0.49,0.00,0.68,0.00,0.16,0.27,2
-0.28,-0.94,-0.38,2.99,-0.55,-1.04,0.68,0.00,0.16,0.26,2
-0.29,-0.94,-0.38,2.01,-0.49,-0.12,0.68,0.00,0.17,0.27,2
-0.27,-0.95,-0.39,3.23,-0.79,-0.24,0.73,0.00,0.18,0.21,2
-0.27,-0.95,-0.40,3.36,0.06,-0.85,0.75,0.00,0.19,0.15,2
-0.27,-0.94,-0.40,3.36,-0.79,-2.44,0.75,0.05,0.20,0.10,2
-0.37,-0.92,-0.42,4.76,3.60,-9.89,0.59,0.00,0.13,0.28,2
-0.24,-0.96,-0.47,7.75,3.05,8.61,0.00,0.00,0.00,0.38,2
-0.33,-0.94,-0.40,-5.80,27.40,-25.82,0.00,0.00,0.00,0.00,2
-0.62,-0.68,-0.47,-31.25,-8.54,-94.73,0.00,0.00,0.00,0.00,2
-1.01,-0.20,-0.66,22.95,55.48,4.82,0.00,0.00,0.00,0.00,2
-0.95,-0.14,-0.41,16.85,6.41,7.02,0.00,0.00,0.00,0.00,2
-0.86,-0.42,-0.09,-12.70,-17.52,36.87,0.00,0.00,0.00,0.00,2
-0.84,-0.06,0.02,4.27,17.21,-81.18,0.00,0.00,0.00,0.00,2
-1.03,0.13,0.03,12.02,15.32,15.81,0.00,0.00,0.00,0.00,2
-0.91,0.05,-0.15,3.91,-3.54,-7.87,0.00,0.05,0.00,0.00,2
-1.10,0.05,-0.17,19.59,0.92,-2.75,0.00,0.00,0.00,0.00,2
-1.05,0.07,-0.21,-3.05,7.75,2.87,0.00,0.00,0.00,0.00,2
-1.00,0.03,-0.02,-12.76,14.47,2.75,0.08,0.00,0.00,0.00,2
-1.00,0.05,-0.09,15.69,-19.47,-7.08,0.07,0.00,0.00,0.00,2
-1.06,0.07,-0.22,10.38,-6.47,-5.25,0.00,0.00,0.00,0.00,2
-1.02,0.06,-0.18,-5.19,13.55,4.09,0.00,0.00,0.00,0.00,2
-1.00,0.04,-0.03,-5.07,9.28,2.08,0.09,0.00,0.00,0.00,2
-1.02,0.04,-0.13,13.55,-13.37,-5.86,0.06,0.00,0.00,0.00,2
-1.02,0.11,-0.23,10.19,-7.02,-3.72,0.00,0.00,0.00,0.00,2
-1.03,0.08,-0.22,-5.92,11.78,5.31,0.00,0.00,0.00,0.00,2
-1.00,0.03,-0.05,-3.54,7.39,2.56,0.08,0.00,0.00,0.00,2
-1.02,0.05,-0.13,9.28,-7.02,-3.66,0.05,0.00,0.00,0.00,2
-1.02,0.10,-0.23,9.03,-7.63,-3.78,0.00,0.00,0.00,0.00,2
-1.03,0.09,-0.21,-3.54,8.24,4.15,0.00,0.00,0.00,0.00,2
-1.05,0.03,-0.13,-3.05,4.94,0.67,0.07,0.00,0.00,0.00,2
-1.00,0.06,-0.11,11.11,-11.29,-3.78,0.06,0.00,0.00,0.00,2
-1.03,0.09,-0.24,3.48,-3.11,-1.10,0.00,0.00,0.00,0.00,2
-1.04,0.07,-0.17,-5.19,10.80,4.64,0.05,0.00,0.00,0.00,2
-1.01,0.03,-0.10,12.27,-9.64,-5.62,0.07,0.00,0.00,0.00,2
-1.04,0.12,-0.24,13.18,-12.39,-5.37,0.00,0.00,0.00,0.00,2
-1.05,0.10,-0.25,-2.69,7.75,4.33,0.00,0.00,0.00,0.00,2
-1.00,0.04,-0.13,-5.00,13.43,3.66,0.06,0.00,0.00,0.00,2
-1.00,0.04,-0.07,6.23,-2.75,-1.65,0.08,0.00,0.00,0.00,2
-1.03,0.05,-0.15,8.18,-6.59,-4.27,0.04,0.00,0.00,0.00,2
-1.04,0.09,-0.24,6.65,-1.71,-1.77,0.00,0.00,0.00,0.00,2
-1.01,0.07,-0.18,-3.91,9.46,3.85,0.04,0.00,0.00,0.00,2
-1.04,0.03,-0.05,-0.06,4.70,-0.12,0.09,0.00,0.00,0.00,2
-1.04,0.05,-0.14,9.09,-6.47,-3.85,0.07,0.00,0.00,0.00,2
-1.05,0.08,-0.22,8.97,-4.64,-2.87,0.00,0.00,0.00,0.00,2
-1.04,0.08,-0.22,-0.49,4.15,1.71,0.00,0.00,0.00,0.00,2
-1.04,0.00,-0.10,-7.45,9.64,1.16,0.07,0.00,0.00,0.00,2
-1.02,0.04,-0.12,11.54,-6.23,-3.48,0.08,0.00,0.00,0.00,2
-1.02,0.09,-0.22,9.64,-4.33,-2.44,0.00,0.00,0.00,0.00,2
-1.01,0.08,-0.19,-3.97,8.42,2.08,0.00,0.00,0.00,0.00,2
-1.02,0.06,-0.13,1.22,1.95,0.79,0.05,0.00,0.00,0.00,2
-1.04,0.05,-0.15,5.74,-4.58,-3.48,0.05,0.00,0.00,0.00,2
-1.02,0.11,-0.24,7.69,-5.62,-2.56,0.00,0.00,0.00,0.00,2
-1.04,0.06,-0.18,-4.46,7.14,2.87,0.06,0.00,0.00,0.00,2
-1.01,0.05,-0.10,-7.63,11.11,3.36,0.08,0.00,0.00,0.00,2
-1.01,0.04,-0.04,16.78,-9.89,-4.46,0.11,0.00,0.00,0.00,2
-1.04,0.07,-0.15,6.71,-7.69,-2.01,0.07,0.00,0.00,0.00,2
-1.04,0.08,-0.23,6.96,-4.21,-1.65,0.04,0.00,0.00,0.00,2
-1.02,0.04,-0.09,-32.59,20.81,8.61,0.08,0.00,0.00,0.00,2
-1.00,0.05,-0.11,18.74,-13.67,-6.04,0.08,0.00,0.00,0.00,2
-0.99,0.08,-0.18,7.75,-4.52,-2.26,0.05,0.00,0.00,0.00,2
-1.02,0.07,-0.15,-4.88,10.74,5.25,0.07,0.00,0.00,0.00,2
-1.00,0.07,-0.12,12.57,-8.67,-3.30,0.08,0.00,0.00,0.00,2
-1.03,0.06,-0.23,3.60,4.33,0.61,0.00,0.00,0.00,0.00,2
-1.02,0.06,-0.12,-5.74,9.58,5.31,0.07,0.00,0.00,0.00,2
-1.04,0.03,-0.09,11.11,-8.61,-3.60,0.09,0.00,0.00,0.00,2
-1.03,0.07,-0.19,8.18,-4.33,-2.93,0.06,0.00,0.00,0.00,2
-1.04,0.06,-0.14,-3.78,7.69,4.46,0.09,0.00,0.00,0.00,2
-1.03,0.04,-0.09,3.48,-2.56,-1.22,0.10,0.00,0.00,0.00,2
-1.05,0.06,-0.21,12.15,-8.97,-5.62,0.05,0.00,0.00,0.00,2
-1.04,0.04,-0.17,-6.53,10.86,2.93,0.07,0.00,0.00,0.00,2
-1.00,0.03,-0.05,5.80,-3.30,-1.34,0.10,0.00,0.00,0.00,2
-1.02,0.06,-0.17,10.07,-9.70,-4.94,0.00,0.05,0.00,0.00,2
-1.04,0.07,-0.18,-3.66,8.00,3.85,0.05,0.00,0.00,0.00,2
-1.02,0.02,-0.06,-4.64,8.36,1.40,0.10,0.00,0.00,0.00,2
-1.03,0.04,-0.14,11.23,-10.38,-4.64,0.08,0.00,0.00,0.00,2
-1.02,0.08,-0.21,1.89,1.53,1.16,0.05,0.00,0.00,0.00,2
-1.03,0.02,-0.10,-10.99,11.23,3.11,0.09,0.00,0.00,0.00,2
-1.00,0.03,-0.08,13.49,-7.08,-3.72,0.10,0.00,0.00,0.00,2
-1.02,0.05,-0.17,8.00,-3.30,-3.05,0.07,0.00,0.00,0.00,2
-1.04,0.04,-0.16,-4.82,9.16,2.93,0.08,0.00,0.00,0.00,2
-1.02,0.03,-0.09,8.30,-5.74,-2.93,0.10,0.00,0.00,0.00,2
-1.03,0.06,-0.16,8.79,-6.84,-4.33,0.08,0.00,0.00,0.00,2
-1.02,0.05,-0.19,-3.85,7.57,3.11,0.07,0.00,0.00,0.00,2
-1.02,0.02,-0.05,4.88,-3.60,-1.46,0.11,0.00,0.00,0.00,2
-1.04,0.06,-0.18,9.95,-7.26,-4.46,0.07,0.00,0.00,0.00,2
-1.02,0.05,-0.15,-8.24,14.34,6.10,0.08,0.00,0.00,0.00,2
-1.01,0.02,-0.10,13.92,-9.52,-5.68,0.10,0.00,0.00,0.00,2
-1.04,0.04,-0.20,1.34,2.69,-0.43,0.06,0.00,0.00,0.00,2
-1.02,0.02,-0.07,-8.61,9.95,2.93,0.11,0.00,0.00,0.00,2
-1.03,0.04,-0.14,10.68,-11.60,-4.70,0.09,0.00,0.00,0.00,2
-1.05,0.06,-0.21,2.38,0.37,-0.24,0.06,0.00,0.00,0.00,2
-1.04,0.04,-0.15,-3.42,6.71,2.75,0.09,0.00,0.00,0.00,2
-1.03,0.03,-0.08,8.61,-5.86,-2.93,0.11,0.00,0.00,0.00,2
-1.04,0.05,-0.18,8.85,-5.49,-4.58,0.08,0.00,0.00,0.00,2
-1.02,0.05,-0.19,-1.34,4.52,1.83,0.08,0.00,0.00,0.00,2
-1.01,0.04,-0.11,-3.85,8.36,2.62,0.09,0.00,0.00,0.00,2
-1.03,0.03,-0.12,8.30,-6.96,-3.78,0.10,0.00,0.00,0.00,2
-1.04,0.06,-0.19,6.96,-4.15,-2.75,0.08,0.00,0.00,0.00,2
-1.03,0.05,-0.17,-2.62,6.04,2.20,0.08,0.00,0.00,0.00,2
-1.02,0.03,-0.08,2.14,1.77,0.12,0.10,0.00,0.00,0.00,2
-1.04,0.04,-0.14,7.93,-5.86,-3.05,0.10,0.00,0.00,0.00,2
-1.03,0.06,-0.19,3.11,1.28,-0.31,0.08,0.00,0.00,0.00,2
-1.02,0.06,-0.15,2.26,0.79,-0.31,0.09,0.00,0.00,0.00,2
-1.04,0.05,-0.16,3.30,-0.06,-0.31,0.09,0.00,0.00,0.00,2
-1.04,0.05,-0.17,1.89,1.34,-0.24,0.09,0.00,0.00,0.00,2
-1.02,0.03,-0.08,-2.38,4.27,1.22,0.11,0.00,0.00,0.00,2
-1.04,0.05,-0.17,13.06,-12.02,-5.07,0.09,0.00,0.00,0.00,2
-1.04,0.06,-0.23,2.56,0.67,-0.98,0.05,0.00,0.00,0.00,2
-1.04,0.05,-0.18,-3.11,6.84,2.44,0.09,0.00,0.00,0.00,2
-1.01,0.04,-0.08,5.00,-2.08,-0.98,0.11,0.00,0.00,0.00,2
-1.01,0.06,-0.16,7.26,-6.53,-2.81,0.09,0.00,0.00,0.00,2
-1.03,0.06,-0.19,-0.18,5.00,2.26,0.04,0.00,0.00,0.00,2
-1.02,0.02,-0.10,-4.09,7.02,1.46,0.11,0.00,0.00,0.00,2
-1.02,0.05,-0.14,11.54,-10.93,-4.94,0.09,0.00,0.00,0.00,2
-1.04,0.07,-0.23,0.43,3.78,1.28,0.07,0.00,0.00,0.00,2
-1.02,0.04,-0.14,-3.17,8.18,2.14,0.09,0.00,0.00,0.00,2
-1.03,0.01,-0.06,-8.18,5.37,1.40,0.11,0.00,0.00,0.00,2
-0.99,0.04,-0.06,21.42,-10.93,-3.97,0.11,0.00,0.00,0.00,2
-1.03,0.05,-0.13,6.71,-2.14,-2.20,0.10,0.00,0.00,0.00,2
-1.05,0.04,-0.17,2.93,1.16,-0.43,0.09,0.00,0.00,0.00,2
-1.04,0.02,-0.14,-2.99,6.53,1.95,0.11,0.00,0.00,0.00,2
-0.96,0.04,0.03,-5.31,6.96,1.77,0.11,0.00,0.00,0.00,2
-1.03,0.01,-0.09,16.17,-12.57,-7.08,0.10,0.00,0.00,0.00,2
-1.00,0.07,-0.19,2.56,-1.59,-0.37,0.08,0.00,0.00,0.00,2
-1.01,0.05,-0.15,2.14,3.05,0.06,0.10,0.00,0.00,0.00,2
-1.02,0.03,-0.15,-0.79,6.04,0.37,0.10,0.00,0.00,0.00,2
-1.01,0.02,-0.06,2.93,1.53,-1.77,0.12,0.00,0.00,0.00,2
-1.05,0.05,-0.16,9.70,-11.35,-6.10,0.10,0.00,0.00,0.00,2
-1.02,0.06,-0.22,-2.32,7.32,1.83,0.06,0.00,0.00,0.00,2
-1.02,0.03,-0.13,-6.53,13.31,4.27,0.09,0.00,0.00,0.00,2
-1.04,0.01,-0.08,9.77,-10.80,-4.88,0.10,0.00,0.00,0.00,2
-1.01,0.06,-0.17,7.45,-3.97,-2.75,0.09,0.00,0.00,0.00,2
-1.03,0.06,-0.19,0.37,2.50,0.79,0.09,0.00,0.00,0.00,2
-1.04,0.05,-0.13,-3.17,5.55,4.15,0.12,0.00,0.00,0.00,2
-1.01,0.03,-0.13,7.81,-4.82,-2.62,0.11,0.00,0.00,0.00,2
-1.05,0.05,-0.19,10.74,-7.14,-4.64,0.10,0.00,0.00,0.00,2
-1.00,0.09,-0.18,-1.22,5.25,2.26,0.08,0.00,0.00,0.00,2
-1.04,0.02,-0.12,-5.25,10.31,2.69,0.11,0.00,0.00,0.00,2
-1.03,0.05,-0.11,10.01,-9.28,-3.72,0.10,0.00,0.00,0.00,2
-1.03,0.07,-0.20,9.16,-5.74,-3.78,0.08,0.00,0.00,0.00,2
-1.05,0.07,-0.18,2.01,1.59,-0.43,0.09,0.00,0.00,0.00,2
-1.02,0.07,-0.18,0.00,2.08,1.10,0.07,0.00,0.00,0.00,2
-1.02,0.07,-0.17,2.26,1.53,-0.12,0.10,0.00,0.00,0.00,2
-1.02,0.06,-0.15,1.10,1.22,-0.31,0.10,0.00,0.00,0.00,2
-1.01,0.06,-0.15,0.49,2.50,0.98,0.10,0.00,0.00,0.00,2
-1.01,0.04,-0.09,-5.55,4.58,2.87,0.11,0.00,0.00,0.00,2
-1.02,0.04,-0.13,12.15,-10.25,-4.64,0.11,0.00,0.00,0.00,2
-1.03,0.08,-0.21,8.91,-5.86,-4.64,0.07,0.00,0.00,0.00,2
-1.03,0.09,-0.23,-0.67,5.55,2.14,0.06,0.00,0.00,0.00,2
-1.02,0.05,-0.15,-4.27,7.14,2.87,0.09,0.00,0.00,0.00,2
-1.04,0.04,-0.08,9.52,-5.25,-2.62,0.10,0.00,0.00,0.00,2
-1.02,0.07,-0.19,12.57,-7.75,-4.58,0.09,0.00,0.00,0.00,2
-1.02,0.07,-0.19,2.01,0.92,0.18,0.10,0.00,0.00,0.00,2
-1.02,0.06,-0.19,1.89,0.31,-0.43,0.10,0.00,0.00,0.00,2
-1.02,0.06,-0.19,2.93,0.79,-0.24,0.12,0.00,0.00,0.00,2
-1.03,0.07,-0.18,2.87,0.73,-0.31,0.12,0.00,0.00,0.00,2
-1.02,0.06,-0.18,2.62,0.61,-0.79,0.11,0.00,0.00,0.00,2
-1.03,0.06,-0.18,3.05,-0.31,-0.18,0.11,0.00,0.00,0.00,2
-1.03,0.06,-0.18,2.87,-0.43,-0.85,0.11,0.00,0.00,0.00,2
-1.03,0.06,-0.18,2.44,-0.43,-0.73,0.11,0.00,0.00,0.00,2
-1.03,0.06,-0.18,2.56,-0.06,-0.67,0.11,0.00,0.00,0.00,2
-1.02,0.06,-0.17,2.38,0.49,-0.37,0.11,0.00,0.00,0.00,2
-1.01,0.06,-0.15,0.18,2.87,1.22,0.11,0.00,0.00,0.00,2
-1.03,0.04,-0.12,1.77,1.34,-0.37,0.12,0.00,0.00,0.00,2
-1.01,0.04,-0.13,3.17,-0.55,-0.79,0.12,0.00,0.00,0.00,2
-1.03,0.04,-0.13,2.99,-0.49,-0.18,0.12,0.00,0.00,0.00,2
-1.03,0.04,-0.14,2.81,0.24,-0.92,0.12,0.00,0.00,0.00,2
-1.02,0.05,-0.14,2.93,0.12,-0.37,0.12,0.00,0.00,0.00,2
-1.03,0.04,-0.14,2.26,-0.37,-0.67,0.12,0.00,0.00,0.00,2
-1.03,0.04,-0.14,3.36,-0.92,-0.85,0.12,0.00,0.00,0.00,2
-1.03,0.04,-0.14,3.17,0.12,-0.37,0.12,0.00,0.00,0.00,2
-1.03,0.04,-0.14,2.99,-0.18,-0.31,0.12,0.00,0.00,0.00,2
-1.03,0.05,-0.14,3.17,0.85,-0.43,0.12,0.00,0.00,0.00,2
-1.03,0.05,-0.14,2.93,-1.28,-0.85,0.12,0.00,0.00,0.00,2
-1.03,0.05,-0.14,3.11,-0.43,-0.73,0.12,0.00,0.00,0.00,2
-1.03,0.05,-0.14,2.87,0.00,-0.55,0.12,0.00,0.00,0.00,2
-1.02,0.05,-0.14,3.17,0.85,-0.43,0.12,0.00,0.00,0.00,2
-1.03,0.05,-0.14,2.62,0.49,-0.79,0.12,0.00,0.00,0.00,2
-1.03,0.05,-0.15,3.42,0.31,-0.67,0.12,0.00,0.00,0.00,2
-1.04,0.05,-0.14,2.81,0.24,-0.18,0.12,0.00,0.00,0.00,2
-1.03,0.05,-0.14,3.11,0.18,-0.31,0.12,0.00,0.00,0.00,2
-1.02,0.05,-0.14,3.30,-2.50,-1.04,0.12,0.00,0.00,0.00,2
-1.03,0.07,-0.18,5.92,-3.60,-2.20,0.11,0.00,0.00,0.00,2
-1.03,0.08,-0.20,3.05,1.59,-0.31,0.10,0.00,0.00,0.00,2
-1.03,0.08,-0.18,1.46,2.01,0.73,0.10,0.00,0.00,0.00,2
-1.04,0.06,-0.16,1.65,2.14,0.06,0.12,0.00,0.00,0.00,2
-1.02,0.05,-0.15,2.69,-0.24,-0.73,0.12,0.00,0.00,0.00,2
-1.03,0.05,-0.15,2.87,-0.12,-0.61,0.12,0.00,0.00,0.00,2
-1.03,0.05,-0.15,1.53,0.79,0.00,0.12,0.00,0.00,0.00,2
-1.02,0.06,-0.14,2.01,-1.10,0.37,0.12,0.00,0.00,0.00,2
-0.97,0.03,-0.10,-3.17,5.13,0.79,0.11,0.00,0.00,0.00,2
-1.03,0.05,-0.15,2.87,1.34,-1.77,0.12,0.00,0.00,0.00,2
-1.02,0.05,-0.15,2.08,1.53,0.31,0.12,0.00,0.00,0.00,2
-1.03,0.04,-0.15,2.81,0.06,-1.10,0.12,0.00,0.00,0.00,2
-1.02,0.05,-0.14,2.81,0.31,-0.43,0.12,0.00,0.00,0.00,2
-1.03,0.04,-0.13,1.95,0.55,-0.24,0.12,0.00,0.00,0.00,2
-1.05,-0.00,-0.17,-11.66,-8.00,-5.74,0.07,0.00,0.00,0.00,2
-0.93,-0.46,-0.31,-19.84,-52.00,119.69,0.00,0.00,0.00,0.00,2
-0.44,-0.87,-0.55,-6.84,-16.48,26.37,0.00,0.00,0.00,0.00,2
-0.04,-0.94,-0.61,-16.78,0.92,-28.50,0.20,0.18,0.00,0.24,2
-0.20,-0.92,-0.39,4.27,22.40,8.06,0.28,0.09,0.00,0.69,2
-0.34,-0.94,-0.32,4.15,3.72,0.73,0.42,0.13,0.00,0.63,2
-0.36,-0.93,-0.34,4.52,9.40,-0.61,0.45,0.16,0.00,0.59,2
-0.29,-0.95,-0.36,-1.04,-12.82,0.12,0.53,0.43,0.07,0.34,2
-0.32,-0.95,-0.34,1.28,-6.41,0.06,0.61,0.28,0.10,0.42,2
-0.32,-0.95,-0.33,3.48,3.60,0.24,0.52,0.20,0.05,0.55,2
-0.33,-0.94,-0.32,2.87,-1.65,-0.12,0.56,0.25,0.08,0.46,2
-0.32,-0.94,-0.32,0.79,-1.40,-2.14,0.64,0.28,0.11,0.37,2
-0.31,-0.94,-0.32,2.75,-0.37,0.73,0.65,0.29,0.11,0.47,2
-0.33,-0.93,-0.31,5.00,3.42,-1.34,0.55,0.22,0.07,0.52,2
-0.34,-0.93,-0.31,2.26,1.22,0.85,0.55,0.29,0.07,0.51,2
-0.32,-0.94,-0.33,3.17,-0.92,0.06,0.63,0.29,0.10,0.39,2
-0.33,-0.94,-0.35,4.27,-0.79,-1.10,0.56,0.27,0.06,0.46,2
-0.36,-0.93,-0.34,2.20,-1.04,-0.49,0.55,0.27,0.06,0.49,2
-0.33,-0.93,-0.36,3.60,-1.46,-1.89,0.56,0.28,0.06,0.51,2
-0.31,-0.94,-0.36,2.38,-0.06,2.08,0.65,0.34,0.10,0.29,2
-0.27,-0.96,-0.37,1.59,-0.49,2.14,0.76,0.38,0.13,0.12,2
-0.26,-0.95,-0.35,2.93,-1.34,-1.59,0.94,0.47,0.25,0.00,2
-0.29,-0.95,-0.37,4.64,0.61,-2.08,0.90,0.52,0.23,0.00,2
-0.37,-0.98,-0.34,1.89,9.70,-0.79,0.51,0.24,0.00,0.44,2
-0.41,-0.91,-0.31,4.76,-7.32,1.59,0.49,0.20,0.00,0.69,2
-0.35,-0.90,-0.49,20.75,4.58,-4.76,0.31,0.18,0.00,0.16,2
-0.28,-2.16,-0.72,-51.64,53.10,43.15,0.00,0.00,0.00,0.00,2
-0.46,-0.92,-0.31,-2.56,-14.89,4.58,0.53,0.24,0.00,0.46,2
-0.35,-0.92,-0.32,3.36,1.16,-1.22,0.38,0.13,0.00,0.58,2
-0.36,-0.94,-0.34,3.05,1.71,1.65,0.66,0.31,0.09,0.19,2
-0.38,-0.91,-0.33,5.31,4.21,-3.91,0.59,0.26,0.06,0.42,2
-0.38,-0.92,-0.34,2.62,-0.61,-0.61,0.47,0.21,0.00,0.54,2
-0.37,-0.91,-0.32,3.23,1.34,0.73,0.32,0.13,0.00,0.58,2
-0.36,-0.93,-0.33,2.81,0.67,1.71,0.37,0.15,0.00,0.56,2
-0.34,-0.93,-0.34,2.81,0.73,-0.73,0.37,0.15,0.00,0.58,2
-0.35,-0.93,-0.34,3.42,-0.67,-0.61,0.35,0.14,0.00,0.59,2
-0.36,-0.93,-0.34,3.23,0.37,-0.49,0.34,0.13,0.00,0.60,2
-0.37,-0.93,-0.34,3.97,8.91,-6.84,0.31,0.11,0.00,0.62,2
-0.37,-0.92,-0.33,2.81,-0.73,0.43,0.28,0.13,0.00,0.64,2
-0.37,-0.92,-0.34,2.99,0.37,-1.65,0.29,0.13,0.00,0.65,2
-0.37,-0.91,-0.37,0.37,1.59,-15.01,0.23,0.10,0.00,0.69,2
-0.40,-0.89,-0.44,15.63,2.26,11.78,0.16,0.10,0.00,0.47,2
-0.32,-0.91,-0.51,2.26,-1.16,4.09,0.40,0.24,0.00,0.05,2
-0.31,-0.91,-0.51,3.05,0.12,0.55,0.45,0.27,0.00,0.07,2
-0.31,-0.92,-0.49,0.98,1.28,-2.01,0.45,0.27,0.00,0.11,2
-0.31,-0.92,-0.50,3.36,-1.59,-0.24,0.44,0.28,0.00,0.19,2
-0.31,-0.91,-0.50,2.93,0.43,-0.24,0.42,0.27,0.00,0.12,2
-0.30,-0.91,-0.51,2.81,0.18,-0.49,0.44,0.28,0.00,0.08,2
-0.30,-0.90,-0.50,2.69,0.31,-1.59,0.44,0.29,0.00,0.11,2
-0.30,-0.91,-0.51,2.56,0.06,-0.55,0.44,0.29,0.00,0.13,2
-0.30,-0.91,-0.50,2.87,-0.31,-0.31,0.44,0.29,0.00,0.16,2
-0.31,-0.92,-0.50,2.81,0.37,-0.12,0.45,0.29,0.00,0.14,2
-0.30,-0.91,-0.50,2.81,-0.12,-0.18,0.45,0.29,0.00,0.14,2
-0.30,-0.91,-0.51,2.44,-0.12,-0.61,0.45,0.30,0.00,0.15,2
-0.30,-0.91,-0.50,2.62,-0.24,-1.04,0.44,0.29,0.00,0.16,2
-0.30,-0.91,-0.51,2.99,-0.18,-0.43,0.44,0.29,0.00,0.17,2
-0.30,-0.91,-0.51,2.81,0.00,-0.43,0.44,0.29,0.00,0.17,2
-0.31,-0.92,-0.51,2.93,-0.43,-0.24,0.41,0.24,0.00,0.11,2
-0.30,-0.91,-0.51,2.62,0.12,-0.61,0.45,0.29,0.00,0.16,2
-0.30,-0.92,-0.50,3.05,0.49,-0.79,0.44,0.29,0.00,0.18,2
-0.30,-0.91,-0.51,2.75,-0.55,-0.67,0.44,0.29,0.00,0.18,2
-0.30,-0.91,-0.50,2.93,0.37,-0.18,0.48,0.32,0.00,0.20,2
-0.30,-0.91,-0.50,3.48,0.43,0.12,0.45,0.29,0.00,0.18,2
-0.30,-0.91,-0.50,2.81,0.43,-0.37,0.49,0.32,0.00,0.19,2
-0.30,-0.92,-0.51,3.11,0.06,-0.24,0.45,0.29,0.00,0.17,2
-0.29,-0.91,-0.51,2.93,0.73,-0.92,0.45,0.30,0.00,0.18,2
-0.30,-0.91,-0.51,2.32,0.24,-0.61,0.45,0.30,0.00,0.16,2
-0.29,-0.91,-0.48,2.69,0.24,-0.18,0.40,0.26,0.00,0.22,2
-0.29,-0.92,-0.50,1.40,0.31,-1.22,0.46,0.30,0.00,0.19,2
-0.28,-0.92,-0.50,-0.43,1.10,-1.16,0.46,0.30,0.00,0.20,2
-0.29,-0.92,-0.49,3.42,-0.12,1.77,0.46,0.29,0.00,0.18,2
-0.28,-0.92,-0.49,2.81,0.49,0.06,0.48,0.30,0.00,0.17,2
-0.29,-0.93,-0.48,2.14,-0.55,0.49,0.48,0.30,0.00,0.18,2
-0.30,-0.91,-0.50,3.48,0.98,-0.61,0.47,0.30,0.00,0.11,2
-0.28,-0.92,-0.50,2.38,-0.55,-0.06,0.49,0.31,0.00,0.14,2
-0.29,-0.91,-0.49,2.99,1.59,-0.98,0.50,0.31,0.00,0.16,2
-0.29,-0.92,-0.48,2.26,-0.12,-0.85,0.47,0.29,0.00,0.20,2
-0.30,-0.93,-0.50,3.05,-0.67,1.59,0.48,0.29,0.00,0.19,2
-0.29,-0.92,-0.49,2.44,-0.24,-0.73,0.50,0.31,0.00,0.17,2
-0.29,-0.93,-0.49,2.69,-0.24,-0.85,0.50,0.31,0.00,0.19,2
-0.29,-0.92,-0.49,2.87,1.22,-0.79,0.50,0.31,0.00,0.20,2
-0.28,-0.92,-0.49,2.99,-0.06,-0.92,0.50,0.32,0.00,0.19,2
-0.29,-0.92,-0.49,3.05,0.67,-0.37,0.54,0.34,0.00,0.20,2
-0.29,-0.93,-0.48,2.93,0.12,-0.61,0.50,0.32,0.00,0.18,2
-0.28,-0.92,-0.49,2.93,0.79,-0.43,0.50,0.32,0.00,0.18,2
-0.29,-0.92,-0.49,2.99,-0.12,0.31,0.49,0.31,0.00,0.22,2
-0.29,-0.92,-0.48,2.87,-0.31,-1.28,0.49,0.30,0.00,0.25,2
-0.29,-0.92,-0.47,4.09,1.22,1.89,0.40,0.25,0.00,0.36,2
-0.28,-0.92,-0.48,2.87,0.92,0.37,0.24,0.15,0.00,0.51,2
-0.26,-0.92,-0.50,3.17,1.59,-2.01,0.08,0.08,0.00,0.60,2
-0.28,-0.93,-0.50,3.72,1.77,0.24,0.12,0.13,0.00,0.60,2
-0.28,-0.92,-0.49,3.42,0.37,0.43,0.06,0.10,0.00,0.63,2
-0.29,-0.92,-0.50,3.11,-0.61,-0.43,0.05,0.08,0.00,0.64,2
-0.28,-0.92,-0.50,3.54,1.40,0.98,0.08,0.11,0.00,0.62,2
-0.27,-0.92,-0.51,2.69,0.12,-0.55,0.10,0.11,0.00,0.62,2
-0.28,-0.92,-0.50,3.05,-0.67,0.55,0.10,0.11,0.00,0.62,2
-0.27,-0.92,-0.50,3.11,-0.43,0.12,0.13,0.13,0.00,0.61,2
-0.27,-0.92,-0.49,3.78,0.79,0.67,0.12,0.13,0.00,0.61,2
-0.27,-0.93,-0.51,3.05,-1.34,0.24,0.13,0.15,0.00,0.60,2
-0.27,-0.92,-0.51,2.99,-0.43,-0.61,0.12,0.14,0.00,0.61,2
-0.26,-0.92,-0.51,2.75,1.40,-0.92,0.13,0.14,0.00,0.60,2
-0.26,-0.92,-0.51,2.32,-0.43,-1.28,0.14,0.15,0.00,0.59,2
-0.27,-0.92,-0.51,3.36,0.49,-0.37,0.15,0.15,0.00,0.60,2
-0.27,-0.93,-0.50,0.98,0.18,-4.09,0.15,0.16,0.00,0.60,2
-0.29,-0.92,-0.49,1.04,-0.37,-5.07,0.33,0.21,0.00,0.35,2
-0.29,-0.92,-0.49,2.87,-2.38,-0.24,0.45,0.27,0.00,0.18,2
-0.26,-0.92,-0.49,3.23,0.85,-0.06,0.41,0.23,0.00,0.05,2
-0.27,-0.92,-0.48,3.05,-0.12,-0.61,0.51,0.32,0.00,0.07,2
-0.27,-0.92,-0.50,2.99,-0.37,-0.61,0.55,0.37,0.00,0.08,2
-0.27,-0.92,-0.50,2.69,0.37,-0.79,0.56,0.37,0.00,0.10,2
-0.27,-0.93,-0.50,2.87,-0.37,-0.67,0.53,0.34,0.00,0.07,2
-0.27,-0.92,-0.50,3.17,-0.06,0.12,0.53,0.34,0.00,0.05,2
-0.26,-0.93,-0.50,3.60,0.18,-0.18,0.54,0.35,0.00,0.00,2
-0.25,-0.93,-0.51,2.93,-0.12,-0.67,0.55,0.36,0.00,0.00,2
-0.26,-0.92,-0.51,3.11,0.12,-0.55,0.55,0.37,0.00,0.00,2
-0.25,-0.92,-0.51,3.11,-0.55,-0.37,0.56,0.37,0.00,0.00,2
-0.25,-0.92,-0.52,2.93,0.55,-0.43,0.56,0.37,0.00,0.00,2
-0.25,-0.92,-0.51,3.05,0.24,-0.43,0.54,0.37,0.00,0.00,2
-0.24,-0.92,-0.51,2.75,-0.49,-0.73,0.57,0.38,0.00,0.00,2
-0.24,-0.92,-0.51,1.95,2.08,-1.83,0.57,0.38,0.00,0.00,2
-0.27,-0.92,-0.49,2.38,1.04,-0.37,0.57,0.37,0.05,0.00,2
-0.27,-0.92,-0.49,2.38,2.01,-2.93,0.55,0.35,0.00,0.05,2
-0.27,-0.92,-0.50,1.77,0.79,-1.22,0.54,0.34,0.00,0.09,2
-0.28,-0.92,-0.49,3.72,-2.26,-0.12,0.51,0.32,0.00,0.09,2
-0.28,-0.91,-0.50,2.50,0.49,-1.04,0.53,0.34,0.00,0.07,2
-0.28,-0.92,-0.50,2.38,0.31,-0.61,0.53,0.33,0.00,0.09,2
-0.29,-0.92,-0.50,2.20,-0.18,0.31,0.53,0.33,0.00,0.09,2
-0.28,-0.92,-0.48,2.81,0.79,-0.24,0.53,0.33,0.00,0.07,2
-0.28,-0.92,-0.49,3.36,-0.24,-0.61,0.53,0.33,0.00,0.10,2
-0.28,-0.92,-0.48,2.69,-0.24,-0.67,0.52,0.32,0.00,0.12,2
-0.29,-0.92,-0.49,2.32,-0.98,-0.67,0.53,0.32,0.00,0.12,2
-0.28,-0.92,-0.49,3.17,0.43,-0.98,0.52,0.32,0.00,0.14,2
-0.28,-0.92,-0.49,2.99,0.24,-0.55,0.52,0.31,0.00,0.15,2
-0.28,-0.92,-0.49,2.99,0.31,-0.85,0.52,0.31,0.00,0.16,2
-0.28,-0.92,-0.49,2.38,-0.49,-0.43,0.52,0.32,0.00,0.15,2
-0.28,-0.92,-0.49,3.17,0.61,0.18,0.52,0.32,0.00,0.15,2
-0.28,-0.92,-0.49,2.99,0.18,-0.43,0.53,0.32,0.00,0.15,2
-0.28,-0.92,-0.48,2.62,0.37,-0.55,0.52,0.32,0.00,0.14,2
-0.28,-0.92,-0.49,2.69,0.12,-0.61,0.52,0.32,0.00,0.16,2
-0.27,-0.92,-0.49,2.99,-1.34,-1.71,0.52,0.32,0.00,0.15,2
-0.31,-0.93,-0.45,-1.34,4.27,-3.36,0.50,0.26,0.00,0.22,2
-0.42,-0.90,-0.34,-3.54,5.62,-13.06,0.42,0.17,0.00,0.67,2
-0.29,-0.88,-0.33,1.16,-4.46,-15.26,0.00,0.00,0.00,0.45,2
-0.31,-0.91,-0.29,-10.31,-10.80,-16.30,0.00,0.00,0.00,0.00,2
-0.35,-0.96,-0.34,-3.05,-1.65,-4.33,0.00,0.00,0.00,0.00,2
-0.33,-0.94,-0.31,0.85,-0.18,0.43,0.00,0.00,0.00,0.00,2
-0.31,-0.94,-0.31,3.23,0.61,-0.73,0.00,0.00,0.00,0.00,2
-0.31,-0.94,-0.32,3.11,0.00,-0.37,0.00,0.00,0.00,0.00,2
-0.32,-0.95,-0.32,3.42,-1.53,-0.12,0.00,0.00,0.00,0.00,2
-0.31,-0.95,-0.32,2.50,0.31,-1.16,0.00,0.00,0.00,0.00,2
-0.31,-0.94,-0.31,2.93,0.18,-0.49,0.00,0.00,0.00,0.00,2
-0.31,-0.94,-0.31,2.99,0.24,-0.67,0.00,0.00,0.00,0.00,2
-0.31,-0.94,-0.32,2.75,-0.06,-0.79,0.00,0.00,0.00,0.00,2
-0.31,-0.94,-0.32,2.69,0.43,-0.98,0.00,0.00,0.00,0.00,2
-0.31,-0.94,-0.32,2.62,0.24,-0.61,0.00,0.00,0.00,0.00,2
-0.31,-0.95,-0.32,2.93,0.12,-0.49,0.00,0.00,0.00,0.00,2
-0.31,-0.95,-0.32,3.23,0.37,-0.12,0.00,0.00,0.00,0.00,2
-0.35,-0.95,-0.31,0.73,0.79,-4.52,0.07,0.00,0.00,0.00,2
-0.55,-0.86,-0.31,-5.74,5.86,-25.27,0.00,0.00,0.00,0.00,2
-0.83,-0.57,-0.26,-1.10,-4.52,-8.30,0.00,0.00,0.00,0.00,2
-0.89,-0.51,-0.30,0.67,-8.18,-17.27,0.00,0.00,0.00,0.00,2
-0.97,-0.33,-0.36,1.04,-8.54,-5.74,0.00,0.00,0.00,0.00,2
-0.96,-0.31,-0.38,3.72,-0.85,0.00,0.00,0.00,0.00,0.00,2
-0.96,-0.32,-0.40,3.72,-0.92,-1.16,0.00,0.00,0.00,0.00,2
-0.97,-0.31,-0.40,2.56,3.48,-3.05,0.00,0.00,0.00,0.00,2
-0.96,-0.31,-0.39,2.32,-1.77,-0.79,0.00,0.00,0.00,0.00,2
-0.97,-0.31,-0.39,2.99,0.12,-0.24,0.00,0.00,0.00,0.00,2
-0.96,-0.31,-0.39,2.69,-0.49,-0.61,0.00,0.00,0.00,0.00,2
-0.96,-0.31,-0.39,3.66,1.34,0.67,0.00,0.00,0.00,0.00,2
-0.96,-0.31,-0.38,2.81,-0.98,0.00,0.00,0.00,0.00,0.00,2
-0.96,-0.30,-0.39,3.36,0.49,-0.06,0.00,0.00,0.00,0.00,2
-0.97,-0.30,-0.38,3.36,0.18,-0.18,0.00,0.00,0.00,0.00,2
-0.97,-0.30,-0.39,3.23,0.24,-1.04,0.00,0.00,0.00,0.00,2
-0.96,-0.30,-0.39,3.54,0.61,-0.06,0.00,0.00,0.00,0.00,2
-0.96,-0.30,-0.40,3.66,0.31,-0.24,0.00,0.00,0.00,0.00,2
-0.96,-0.31,-0.39,2.26,-0.31,-1.28,0.00,0.00,0.00,0.00,2
-0.96,-0.31,-0.38,2.75,0.61,-1.71,0.00,0.00,0.00,0.00,2
-0.98,-0.30,-0.40,0.37,-8.12,-0.67,0.00,0.00,0.00,0.00,2
-0.88,-0.53,-0.29,10.99,47.24,50.48,0.00,0.00,0.00,0.00,2
-0.41,-0.74,-0.29,32.53,46.08,-25.70,0.00,0.00,0.00,0.00,2
-0.73,-0.70,-0.38,1.28,-0.67,0.67,0.00,0.00,0.00,0.00,2
-0.69,-0.72,-0.36,2.44,1.40,0.67,0.00,0.00,0.00,0.00,2
-0.70,-0.73,-0.32,1.77,-2.20,-2.08,0.00,0.00,0.00,0.00,2
-0.70,-0.73,-0.33,2.50,-1.16,-1.34,0.00,0.00,0.00,0.00,2
-0.71,-0.73,-0.32,1.77,2.81,-1.46,0.00,0.00,0.00,0.00,2
-0.68,-0.74,-0.31,1.65,1.40,2.20,0.00,0.00,0.00,0.00,2
-0.67,-0.75,-0.27,2.20,1.71,0.00,0.00,0.00,0.00,0.00,2
-0.66,-0.76,-0.26,1.83,1.22,4.64,0.00,0.00,0.00,0.00,2
-0.65,-0.77,-0.25,2.93,0.73,-0.67,0.00,0.00,0.00,0.00,2
-0.66,-0.77,-0.27,3.30,-0.55,-1.04,0.00,0.00,0.00,0.00,2
-0.66,-0.76,-0.27,3.36,0.55,-0.31,0.00,0.00,0.00,0.00,2
-0.66,-0.77,-0.27,3.23,-0.12,-1.04,0.00,0.00,0.00,0.00,2
-0.69,-0.75,-0.29,2.87,-2.44,-3.66,0.00,0.00,0.00,0.00,2
-0.69,-0.74,-0.29,3.30,-0.31,0.24,0.00,0.00,0.00,0.00,2
-0.68,-0.74,-0.28,2.93,-0.24,-0.73,0.00,0.00,0.00,0.00,2
-0.68,-0.75,-0.29,2.56,0.06,-1.22,0.00,0.00,0.00,0.00,2
-0.68,-0.74,-0.29,2.26,0.98,0.31,0.00,0.00,0.00,0.00,2
-0.67,-0.75,-0.28,2.99,1.53,-0.67,0.00,0.00,0.00,0.00,2
-0.68,-0.74,-0.29,2.99,0.00,-0.31,0.00,0.00,0.00,0.00,2
-0.69,-0.75,-0.28,3.11,0.06,-0.73,0.00,0.00,0.00,0.00,2
-0.68,-0.74,-0.28,2.81,0.24,-0.61,0.00,0.00,0.00,0.00,2
-0.68,-0.74,-0.28,3.30,0.37,0.43,0.00,0.00,0.00,0.00,2
-0.68,-0.75,-0.28,4.27,-0.55,0.98,0.00,0.00,0.00,0.00,2
-0.66,-0.76,-0.27,2.81,-1.34,-1.28,0.00,0.00,0.00,0.00,2
-0.70,-0.74,-0.28,1.89,-2.56,-0.92,0.00,0.00,0.00,0.00,2
-0.68,-0.74,-0.28,5.37,7.26,0.92,0.00,0.00,0.00,0.00,2
-0.67,-0.75,-0.30,3.85,2.26,0.67,0.00,0.00,0.00,0.00,2
-0.67,-0.76,-0.29,2.01,-1.83,0.00,0.00,0.00,0.00,0.00,2
-0.67,-0.74,-0.28,2.56,-2.38,-1.53,0.00,0.00,0.00,0.00,2
-0.69,-0.75,-0.29,2.50,-1.65,-1.95,0.00,0.00,0.00,0.00,2
-0.70,-0.74,-0.29,2.81,0.18,-0.37,0.00,0.00,0.00,0.00,2
-0.69,-0.74,-0.28,3.42,3.54,0.00,0.00,0.00,0.00,0.00,2
-0.68,-0.75,-0.29,3.91,4.39,0.18,0.00,0.00,0.00,0.00,2
-0.67,-0.75,-0.30,3.11,1.53,-0.18,0.00,0.00,0.00,0.00,2
-0.67,-0.75,-0.30,2.62,-1.16,-0.06,0.00,0.00,0.00,0.00,2
-0.65,-0.76,-0.31,1.65,-1.16,-1.10,0.00,0.00,0.00,0.00,2
-0.66,-0.74,-0.29,2.26,-2.20,-2.38,0.00,0.00,0.00,0.00,2
-0.67,-0.74,-0.29,1.59,-1.53,-3.78,0.00,0.00,0.00,0.00,2
-0.66,-0.75,-0.29,0.61,-2.50,-3.23,0.00,0.00,0.00,0.00,2
-0.69,-0.75,-0.29,1.59,-3.23,-2.01,0.00,0.00,0.00,0.00,2
-0.70,-0.74,-0.29,2.01,-2.99,-1.71,0.00,0.00,0.00,0.00,2
-0.71,-0.74,-0.30,2.26,-2.38,0.31,0.00,0.00,0.00,0.00,2
-0.71,-0.74,-0.29,2.50,-2.50,-1.22,0.00,0.00,0.00,0.00,2
-0.70,-0.74,-0.29,2.08,-0.79,-0.49,0.00,0.00,0.00,0.00,2
-0.70,-0.74,-0.28,2.75,1.95,0.18,0.00,0.00,0.00,0.00,2
-0.69,-0.74,-0.28,4.09,2.38,0.73,0.00,0.00,0.00,0.00,2
-0.69,-0.74,-0.28,4.27,3.48,0.79,0.00,0.00,0.00,0.00,2
-0.68,-0.74,-0.29,3.78,2.26,0.61,0.00,0.00,0.00,0.00,2
-0.67,-0.75,-0.30,3.36,2.75,0.24,0.00,0.00,0.00,0.00,2
-0.67,-0.75,-0.30,2.62,-0.43,-0.43,0.00,0.00,0.00,0.00,2
-0.68,-0.75,-0.29,2.50,-0.49,-0.73,0.00,0.00,0.00,0.00,2
-0.68,-0.75,-0.29,2.69,-0.55,-0.73,0.00,0.00,0.00,0.00,2
-0.68,-0.75,-0.29,2.75,-0.06,-0.73,0.00,0.00,0.00,0.00,2
-0.68,-0.74,-0.29,3.23,0.55,-0.43,0.00,0.00,0.00,0.00,2
-0.68,-0.75,-0.30,3.11,0.06,-0.43,0.00,0.00,0.00,0.00,2
-0.69,-0.74,-0.29,3.11,0.43,-0.73,0.00,0.00,0.00,0.00,2
-0.69,-0.75,-0.29,3.11,0.12,-0.37,0.00,0.00,0.00,0.00,2
-0.68,-0.75,-0.29,2.93,-0.31,-0.43,0.00,0.00,0.00,0.00,2
-0.68,-0.74,-0.29,2.81,0.12,-0.37,0.00,0.00,0.00,0.00,2
-0.68,-0.75,-0.29,2.81,0.37,-0.43,0.00,0.00,0.00,0.00,2
-0.68,-0.75,-0.29,2.81,0.37,-0.61,0.00,0.00,0.00,0.00,2
-0.68,-0.74,-0.29,3.05,0.18,-0.37,0.00,0.00,0.00,0.00,2
-0.68,-0.75,-0.29,2.99,-0.67,-0.67,0.00,0.00,0.00,0.00,2
-0.67,-0.75,-0.29,3.30,-0.55,-0.79,0.00,0.00,0.00,0.00,2
-0.68,-0.75,-0.28,0.67,3.17,0.85,0.00,0.00,0.00,0.00,2
-0.66,-0.77,-0.24,0.43,2.87,-0.43,0.00,0.00,0.00,0.00,2
-0.68,-0.75,-0.25,4.15,-6.71,-6.71,0.00,0.00,0.00,0.00,2
-0.76,-0.69,-0.30,-4.39,10.62,13.37,0.00,0.00,0.00,0.00,2
-0.75,-0.71,-0.22,13.98,21.97,-14.95,0.00,0.00,0.00,0.00,2
-0.97,-0.41,-0.32,-3.23,-13.98,-4.21,0.00,0.00,0.00,0.00,2
-0.64,-0.54,-0.31,13.55,24.72,78.12,0.00,0.00,0.00,0.00,2
-0.75,-0.72,-0.24,8.97,15.32,9.16,0.00,0.00,0.00,0.00,2
-0.64,-0.78,-0.28,13.24,-4.46,-12.51,0.00,0.00,0.00,0.00,2
-0.63,-0.79,-0.27,5.13,-1.40,-0.61,0.00,0.00,0.00,0.00,2
-0.63,-0.78,-0.28,3.91,-0.98,-0.79,0.00,0.00,0.00,0.00,2
-0.63,-0.79,-0.28,2.62,-0.06,-0.55,0.00,0.00,0.00,0.00,2
-0.62,-0.79,-0.28,3.30,0.79,-0.55,0.00,0.00,0.00,0.00,2
-0.63,-0.79,-0.29,2.75,0.55,-0.98,0.00,0.00,0.00,0.00,2
-0.63,-0.78,-0.30,4.94,-3.17,-1.46,0.00,0.00,0.00,0.00,2
-0.64,-0.78,-0.29,2.69,0.55,1.34,0.00,0.00,0.00,0.00,2
-0.63,-0.79,-0.29,3.30,2.14,0.31,0.00,0.00,0.00,0.00,2
-0.64,-0.78,-0.30,3.66,3.17,0.79,0.00,0.00,0.00,0.00,2
-0.62,-0.79,-0.29,3.36,-1.89,-2.99,0.00,0.00,0.00,0.00,2
-0.63,-0.78,-0.29,2.20,1.71,0.00,0.00,0.00,0.00,0.00,2
-0.96,-0.37,-0.36,-3.72,-24.96,-23.32,0.00,0.00,0.00,0.00,2
-1.15,-1.34,-0.50,69.03,250.49,10.93,0.00,0.00,0.00,0.00,2
-0.86,-0.51,-0.40,5.68,-7.20,-26.43,0.00,0.00,0.00,0.00,2
-0.74,-0.53,-0.15,-10.01,22.89,49.13,0.00,0.00,0.00,0.00,2
-0.63,-0.77,-0.31,3.30,-16.72,-1.95,0.00,0.00,0.00,0.00,2
-0.66,-0.78,-0.28,5.00,2.87,2.75,0.00,0.00,0.00,0.00,2
-0.66,-0.75,-0.28,4.94,4.46,0.61,0.00,0.00,0.00,0.00,2
-0.63,-0.78,-0.27,2.69,7.39,9.40,0.00,0.00,0.00,0.00,2
-0.64,-0.78,-0.24,2.69,0.61,-0.85,0.00,0.00,0.00,0.00,2
-0.65,-0.78,-0.26,2.44,0.12,-0.55,0.00,0.00,0.00,0.00,2
-0.67,-0.77,-0.24,2.26,-1.71,0.55,0.00,0.00,0.00,0.00,2
-0.67,-0.77,-0.24,3.48,1.65,0.67,0.00,0.00,0.00,0.00,2
-0.64,-0.77,-0.25,3.42,1.71,0.00,0.00,0.00,0.00,0.00,2
-0.63,-0.78,-0.25,2.14,-2.50,-1.77,0.00,0.00,0.00,0.00,2
-0.65,-0.78,-0.25,2.56,-0.61,-0.73,0.00,0.00,0.00,0.00,2
-0.65,-0.77,-0.25,2.75,0.37,-0.55,0.00,0.00,0.00,0.00,2
-0.64,-0.78,-0.24,3.11,0.31,-0.49,0.00,0.00,0.00,0.00,2
-0.65,-0.77,-0.26,2.81,-0.12,-0.73,0.00,0.00,0.00,0.00,2
-0.65,-0.78,-0.24,2.69,-0.12,-0.18,0.00,0.00,0.00,0.00,2
-0.64,-0.78,-0.25,3.11,-0.06,-0.67,0.00,0.00,0.00,0.00,2
-0.64,-0.78,-0.25,3.54,0.67,-0.24,0.00,0.00,0.00,0.00,2
-0.64,-0.78,-0.24,2.93,0.55,-0.43,0.00,0.00,0.00,0.00,2
-0.64,-0.78,-0.24,1.34,1.10,0.06,0.00,0.00,0.00,0.00,2
-0.63,-0.78,-0.24,3.42,-2.14,-0.79,0.00,0.00,0.00,0.00,2
-0.64,-0.78,-0.23,3.30,-0.43,-0.85,0.00,0.00,0.00,0.00,2
-0.64,-0.78,-0.24,2.93,0.43,-0.49,0.00,0.00,0.00,0.00,2
-0.66,-0.78,-0.25,2.69,-0.37,0.00,0.00,0.00,0.00,0.00,2
-0.64,-0.77,-0.25,3.23,-0.43,-0.98,0.00,0.00,0.00,0.00,2
-0.65,-0.77,-0.27,1.28,1.16,0.00,0.00,0.00,0.00,0.00,2
-0.65,-0.77,-0.25,3.36,0.12,1.34,0.00,0.00,0.00,0.00,2
-0.64,-0.77,-0.25,2.50,-2.93,-2.14,0.00,0.00,0.00,0.00,2
-0.65,-0.78,-0.25,5.13,-2.75,-1.89,0.00,0.00,0.00,0.00,2
-0.64,-0.77,-0.26,3.78,0.00,0.37,0.00,0.00,0.00,0.00,2
-0.65,-0.77,-0.24,1.65,0.79,-0.37,0.00,0.00,0.00,0.00,2
-0.65,-0.77,-0.25,2.81,0.31,0.37,0.00,0.00,0.00,0.00,2
-0.64,-0.77,-0.24,2.81,2.26,-0.92,0.00,0.00,0.00,0.00,2
-0.65,-0.77,-0.25,2.08,1.77,-0.12,0.00,0.00,0.00,0.00,2
-0.65,-0.77,-0.25,3.66,-1.46,-0.85,0.00,0.00,0.00,0.00,2
-0.65,-0.77,-0.26,2.69,-0.79,-0.67,0.00,0.00,0.00,0.00,2
-0.65,-0.77,-0.24,4.82,-2.99,-1.77,0.00,0.00,0.00,0.00,2
-0.65,-0.77,-0.25,2.99,0.43,-0.12,0.00,0.00,0.00,0.00,2
-0.65,-0.77,-0.26,2.08,0.31,-0.43,0.00,0.00,0.00,0.00,2
-0.65,-0.77,-0.25,3.17,-0.43,-0.43,0.00,0.00,0.00,0.00,2
-0.65,-0.77,-0.24,2.87,0.37,-0.18,0.00,0.00,0.00,0.00,2
-0.65,-0.77,-0.25,2.32,0.92,-0.49,0.00,0.00,0.00,0.00,2
-0.65,-0.77,-0.26,3.23,-0.24,-0.79,0.00,0.00,0.00,0.00,2
-0.66,-0.77,-0.25,3.36,-0.55,-0.55,0.00,0.00,0.00,0.00,2
-0.65,-0.77,-0.24,2.38,1.04,-0.31,0.00,0.00,0.00,0.00,2
-0.66,-0.77,-0.26,3.48,-0.92,-0.37,0.00,0.00,0.00,0.00,2
-0.65,-0.77,-0.26,2.08,1.89,-0.18,0.00,0.00,0.00,0.00,2
-0.65,-0.77,-0.24,3.30,-0.37,-0.79,0.00,0.00,0.00,0.00,2
-0.65,-0.77,-0.24,2.08,1.40,-0.49,0.00,0.00,0.00,0.00,2
-0.66,-0.77,-0.25,3.30,-0.12,-0.55,0.00,0.00,0.00,0.00,2
-0.65,-0.78,-0.26,2.62,-0.73,-0.98,0.00,0.00,0.00,0.00,2
-0.65,-0.77,-0.24,3.23,0.06,-0.67,0.00,0.00,0.00,0.00,2
-0.68,-0.76,-0.24,2.99,-3.11,-2.44,0.00,0.00,0.00,0.00,2
-0.66,-0.77,-0.23,1.83,1.46,0.61,0.00,0.00,0.00,0.00,2
-0.65,-0.77,-0.24,2.75,0.61,-1.16,0.00,0.00,0.00,0.00,2
-0.65,-0.77,-0.27,1.16,4.82,-0.49,0.00,0.00,0.00,0.00,2
-0.67,-0.76,-0.25,3.48,-1.46,-1.16,0.00,0.00,0.00,0.00,2
-0.66,-0.74,-0.24,-0.12,7.93,4.21,0.00,0.00,0.00,0.00,2
-0.64,-0.77,-0.26,2.99,-0.61,-0.12,0.00,0.00,0.00,0.00,2
-0.65,-0.77,-0.26,4.39,2.32,0.61,0.00,0.00,0.00,0.00,2
-0.68,-0.74,-0.24,1.22,-3.17,-5.00,0.00,0.00,0.00,0.00,2
-0.86,-0.53,-0.37,1.83,4.64,1.65,0.00,0.00,0.00,0.00,2
-0.37,-0.94,-0.35,-19.47,-43.58,-21.79,0.00,0.00,0.00,0.00,2
-0.38,-0.91,-0.24,2.50,2.38,0.31,0.00,0.00,0.00,0.00,2
-0.38,-0.92,-0.27,4.94,-1.28,-8.00,0.00,0.00,0.00,0.00,2
-0.46,-0.81,-0.02,-68.97,-8.12,-28.69,0.00,0.00,0.00,0.00,2
-0.75,-0.73,-0.42,-0.18,-37.35,7.26,0.00,0.00,0.00,0.00,2
-0.71,-0.48,-0.07,-11.60,-5.86,-42.91,0.00,0.00,0.00,0.00,2
-0.79,-0.63,-0.37,24.66,-17.09,15.01,0.00,0.00,0.00,0.00,2
-0.69,-0.71,-0.50,1.71,-4.58,1.77,0.00,0.00,0.00,0.00,2
-0.70,-0.74,-0.46,-1.59,23.19,-6.59,0.00,0.00,0.00,0.00,2
-0.68,-0.69,-0.43,2.99,-6.47,-0.73,0.00,0.00,0.00,0.00,2
-0.63,-0.73,-0.43,3.72,-8.73,2.44,0.00,0.00,0.00,0.00,2
-0.62,-0.74,-0.48,3.48,4.39,-0.85,0.00,0.00,0.00,0.00,2
-0.62,-0.81,-0.48,2.08,-5.19,0.43,0.00,0.00,0.00,0.00,2
-0.61,-0.75,-0.45,3.72,-2.14,-1.95,0.00,0.00,0.00,0.00,2
-0.64,-0.76,-0.50,3.42,-8.79,4.52,0.00,0.00,0.00,0.00,2
-0.62,-0.75,-0.49,1.34,1.95,-1.28,0.00,0.00,0.00,0.00,2
-0.55,-0.74,-0.62,-1.10,-34.97,4.88,0.00,0.00,0.00,0.00,2
-0.13,-0.83,-0.85,-21.42,35.89,8.54,0.00,0.00,0.00,0.00,2
-0.23,0.09,-1.32,76.72,-68.24,-119.87,0.00,0.00,0.00,0.00,2
-0.27,-0.25,-1.00,-44.92,97.72,37.54,0.00,0.00,0.00,0.00,2
-0.66,-0.32,-1.25,-55.11,-39.43,95.52,0.00,0.00,0.00,0.00,2
-0.76,-0.09,-1.24,47.61,11.84,-27.34,0.00,0.00,0.00,0.00,2
-0.05,0.11,-1.22,34.18,3.85,-3.66,0.00,0.00,0.00,0.00,2
-0.05,0.16,-1.25,-0.85,-2.62,-2.62,0.00,0.00,0.00,0.00,2
