accelX,accelY,accelZ,gyroX,gyroY,gyroZ,fsr1,fsr2,fsr3,fsr4,label
-0.04,-0.46,-1.12,3.30,0.18,0.31,0.00,0.00,0.00,173015040.00,2
-0.04,-0.46,-1.13,2.81,0.00,-0.31,0.00,0.00,0.00,173015040.00,2
-0.04,-0.46,-1.12,3.36,0.06,-0.06,0.00,0.00,0.00,173015040.00,2
-0.05,-0.46,-1.13,2.62,0.00,0.06,0.00,0.00,0.00,173015040.00,2
-0.05,-0.45,-1.12,3.11,-0.12,0.00,0.00,0.00,0.00,173015040.00,2
-0.04,-0.46,-1.13,2.87,-0.06,-0.18,0.00,0.00,0.00,173015040.00,2
-0.04,-0.46,-1.12,2.50,0.06,-0.12,0.00,0.00,0.00,173015040.00,2
-0.05,-0.46,-1.13,2.87,0.00,0.06,0.00,0.00,0.00,173015040.00,2
-0.04,-0.46,-1.12,2.93,0.06,-0.24,0.00,0.00,0.00,173015040.00,2
-0.04,-0.46,-1.13,2.93,-0.06,0.31,0.00,0.00,0.00,173015040.00,2
-0.05,-0.46,-1.13,2.87,0.00,-0.24,0.74,0.00,0.00,173015040.00,2
-0.05,-0.46,-1.12,2.93,0.12,-0.06,0.77,0.00,0.00,173015040.00,2
-0.04,-0.45,-1.13,3.05,0.06,-0.12,0.74,0.00,0.00,173015040.00,2
-0.03,-0.45,-1.13,2.87,0.18,-0.06,0.00,0.00,0.00,173015040.00,2
-0.05,-0.46,-1.13,2.56,-0.06,0.00,0.00,0.00,0.00,173015040.00,2
-0.04,-0.46,-1.12,2.99,0.31,0.00,0.00,0.00,0.00,173015040.00,2
-0.04,-0.46,-1.12,2.56,0.06,-0.18,0.00,0.00,0.00,173015040.00,2
-0.04,-0.46,-1.13,2.81,0.18,-0.06,0.00,0.00,0.00,173015040.00,2
-0.05,-0.46,-1.13,3.11,-0.55,0.00,0.00,0.00,0.00,173015040.00,2
-0.04,-0.46,-1.12,2.87,0.12,-0.06,0.00,0.00,0.00,173015040.00,2
-0.04,-0.46,-1.12,2.87,0.06,0.18,0.00,0.00,0.00,173015040.00,2
-0.04,-0.46,-1.13,2.81,0.00,-0.12,0.00,0.00,0.00,173015040.00,2
-0.05,-0.46,-1.13,2.75,-0.12,-0.18,0.00,0.00,0.00,173015040.00,2
-0.05,-0.46,-1.12,2.93,-0.12,-0.31,0.00,0.00,0.00,173015040.00,2
-0.05,-0.46,-1.13,2.99,0.18,-0.06,0.00,0.00,0.00,173015040.00,2
-0.04,-0.46,-1.12,2.87,0.18,-0.18,0.00,0.00,0.00,173015040.00,2
-0.04,-0.46,-1.12,2.75,0.24,-0.06,0.00,0.00,0.00,173015040.00,2
-0.04,-0.46,-1.13,2.93,0.12,-0.12,0.00,0.00,0.00,173015040.00,2
-0.04,-0.46,-1.12,2.75,0.12,-0.24,0.00,0.00,0.00,173015040.00,2
-0.05,-0.46,-1.13,3.05,0.00,-0.37,0.00,0.00,0.00,173015040.00,2
-0.04,-0.46,-1.13,2.75,-0.18,-0.12,0.00,0.00,0.00,173015040.00,2
-0.04,-0.46,-1.12,2.75,0.00,-0.18,0.00,0.00,0.00,173015040.00,2
-0.04,-0.46,-1.13,2.69,0.43,-0.24,0.00,0.00,0.00,173015040.00,2
-0.04,-0.45,-1.12,2.81,-0.06,0.12,0.00,0.00,0.00,173015040.00,2
-0.04,-0.46,-1.13,2.93,-0.06,0.00,0.00,0.00,0.00,173015040.00,2
-0.04,-0.46,-1.12,2.87,0.12,0.06,0.00,0.00,0.00,173015040.00,2
-0.04,-0.46,-1.13,2.62,0.24,0.06,0.00,0.00,0.00,173015040.00,2
-0.07,-0.48,-1.10,14.89,-3.05,-8.67,0.00,0.00,0.00,173015040.00,2
-0.04,-0.44,-1.15,8.73,-12.63,-2.32,0.00,0.00,0.00,173015040.00,2
-0.03,-0.53,-0.87,-26.79,17.09,-8.42,0.00,0.00,0.00,173015040.00,2
0.00,-0.77,-0.88,-7.02,-14.34,-13.12,0.00,0.00,0.00,173015040.00,2
-0.01,-0.75,-0.83,29.85,-10.86,-17.21,0.00,0.00,0.00,173015040.00,2
-0.08,-0.70,-0.88,10.99,25.15,-3.36,0.00,0.00,0.00,173015040.00,2
-0.11,-0.58,-0.98,24.35,8.48,-25.15,0.00,0.00,0.00,0.00,2
-0.03,-0.66,-1.01,-3.05,14.47,3.36,0.00,0.00,0.00,0.00,2
-0.07,-0.66,-0.89,1.04,-2.99,8.30,0.00,0.00,0.00,0.00,2
0.02,-0.92,-0.95,-17.58,23.56,13.85,0.00,0.00,0.00,0.00,2
-0.05,-0.78,-0.92,9.83,6.23,12.88,0.00,0.00,0.00,173015040.00,2
-0.03,-0.76,-0.92,9.28,2.99,3.17,0.00,0.00,0.00,173015040.00,2
0.04,-0.74,-0.88,5.43,10.13,1.34,0.00,0.00,0.00,173015040.00,2
-0.02,-0.60,-0.93,-2.01,16.60,-14.28,0.00,0.00,0.00,2.97,2
0.05,-0.63,-1.03,32.04,12.45,1.34,0.00,0.00,0.00,173015040.00,2
0.07,-0.58,-1.04,3.23,0.85,0.18,0.00,0.00,0.00,173015040.00,2
-0.03,-0.61,-1.07,-5.98,11.78,-2.99,0.00,0.00,0.00,173015040.00,2
-0.06,-0.61,-0.96,-8.36,9.52,9.28,0.00,0.00,0.00,173015040.00,2
-0.14,-0.58,-1.06,-12.57,19.35,11.41,0.00,0.00,0.00,173015040.00,2
0.07,-0.49,-1.37,-39.98,-12.88,83.80,0.00,0.00,0.00,173015040.00,2
0.13,-0.17,-1.22,13.67,-0.12,10.99,0.00,0.00,0.00,173015040.00,2
0.09,-0.34,-1.20,-9.40,1.22,-16.11,0.00,0.00,0.00,173015040.00,2
0.11,-0.34,-1.20,5.55,-0.12,1.95,0.00,0.00,0.00,173015040.00,2
0.19,-0.31,-1.16,9.28,-1.22,2.87,0.00,0.00,0.00,173015040.00,2
0.17,-0.31,-1.15,0.49,-3.11,-5.80,0.00,0.00,0.00,173015040.00,2
0.17,-0.33,-1.14,1.89,-0.06,-3.85,0.00,0.00,0.00,5.27,2
0.18,-0.36,-1.08,15.93,7.14,7.81,0.00,0.00,0.00,0.00,2
0.26,-0.32,-1.16,26.18,-6.96,2.81,0.00,0.00,0.00,173015040.00,2
0.16,-0.36,-1.12,-8.24,5.19,-1.16,0.00,0.00,0.00,173015040.00,2
0.20,-0.38,-1.19,8.79,8.54,-19.04,0.00,0.00,0.00,173015040.00,2
0.12,-0.38,-1.21,-11.96,2.20,13.06,0.00,0.00,0.00,173015040.00,2
0.09,-0.33,-1.18,2.75,-17.03,-9.16,0.00,0.00,0.00,173015040.00,2
0.13,-0.29,-1.12,1.77,-8.85,21.48,0.00,0.00,0.00,173015040.00,2
0.17,-0.32,-1.19,9.89,-0.18,-2.69,0.00,0.00,0.00,173015040.00,2
0.25,-0.25,-1.20,-8.67,-2.69,0.92,0.00,0.00,0.00,173015040.00,2
0.19,-0.37,-1.25,18.49,-1.46,19.29,0.00,0.00,0.00,173015040.00,2
0.13,-0.27,-1.16,12.51,-13.49,-1.16,0.00,0.00,0.00,173015040.00,2
0.10,-0.34,-1.27,9.16,16.72,10.13,0.00,0.00,0.00,173015040.00,2
0.21,-0.35,-1.13,-2.87,-17.21,9.03,0.00,0.00,0.00,173015040.00,2
0.13,-0.39,-1.11,-4.58,-5.25,8.12,0.00,0.00,0.00,173015040.00,2
0.11,-0.52,-1.18,32.10,19.41,6.23,0.00,0.00,0.00,173015040.00,2
0.09,-0.36,-1.13,7.26,1.22,11.54,0.00,0.00,0.00,173015040.00,2
0.12,-0.37,-1.15,10.56,-8.61,9.28,0.00,0.00,0.00,173015040.00,2
0.04,-0.40,-1.22,18.74,-40.10,32.78,0.00,0.00,0.00,173015040.00,2
-0.01,-0.26,-1.22,16.17,-3.91,-22.77,0.00,0.00,0.00,173015040.00,2
0.06,-0.31,-1.14,9.22,3.42,-7.51,0.00,0.00,0.00,173015040.00,2
0.10,-0.28,-1.16,13.92,-8.18,-2.01,0.00,0.00,0.00,173015040.00,2
0.15,-0.27,-1.12,-8.67,3.60,-1.40,0.00,0.00,0.00,173015040.00,2
0.03,-0.29,-1.18,2.32,3.85,1.53,0.00,0.00,0.00,173015040.00,2
0.10,-0.32,-1.16,-1.10,5.19,7.08,0.00,0.00,0.00,173015040.00,2
0.02,-0.29,-1.18,2.44,-37.23,-3.17,0.00,0.00,0.00,173015040.00,2
0.18,-0.27,-1.12,32.71,-0.24,-1.04,0.00,0.00,0.00,173015040.00,2
0.16,-0.30,-1.15,7.14,-5.80,2.62,0.00,0.00,0.00,173015040.00,2
0.07,-0.34,-1.23,8.91,1.59,-1.71,0.00,0.00,0.00,173015040.00,2
0.08,-0.33,-1.23,-18.92,7.57,-7.93,0.00,0.00,0.00,173015040.00,2
0.06,-0.32,-1.18,10.31,-6.16,0.85,0.00,0.00,0.00,173015040.00,2
0.06,-0.34,-1.21,1.89,-8.24,-4.15,0.00,0.00,0.00,173015040.00,2
0.21,-0.31,-1.13,24.48,-10.56,-11.96,0.00,0.00,0.00,173015040.00,2
0.07,-0.32,-1.12,12.82,-12.82,5.74,0.00,0.00,0.00,173015040.00,2
0.06,-0.25,-1.19,10.99,-7.51,3.54,0.00,0.00,0.00,173015040.00,2
0.08,-0.33,-1.23,26.37,12.76,5.13,0.00,0.00,0.00,173015040.00,2
0.08,-0.27,-1.14,11.90,-2.38,-10.01,0.00,0.00,0.00,173015040.00,2
0.09,-0.33,-1.22,3.72,-1.59,2.32,0.00,0.00,0.00,173015040.00,2
0.06,-0.34,-1.19,25.39,-9.95,18.98,0.00,0.00,0.00,173015040.00,2
0.06,-0.32,-1.18,10.07,-9.40,-3.54,0.00,0.00,0.00,173015040.00,2
0.08,-0.34,-1.20,6.96,-0.06,0.18,0.00,0.00,0.00,173015040.00,2
0.07,-0.29,-1.21,-23.38,11.60,-3.30,0.00,0.00,0.00,173015040.00,2
0.06,-0.37,-1.22,8.36,12.39,-12.33,0.00,0.00,0.00,173015040.00,2
0.02,-0.44,-1.14,41.93,6.47,8.79,0.00,0.00,0.00,173015040.00,2
0.08,-0.32,-1.19,4.88,-8.06,10.74,0.00,0.00,0.00,173015040.00,2
0.08,-0.32,-1.19,6.29,3.91,2.14,0.00,0.00,0.00,173015040.00,2
0.09,-0.32,-1.18,3.72,0.61,-0.61,0.00,0.00,0.00,173015040.00,2
0.08,-0.33,-1.18,4.21,1.77,0.67,0.00,0.00,0.00,173015040.00,2
0.07,-0.29,-1.16,-2.38,-2.50,-1.59,0.00,0.00,0.00,173015040.00,2
0.09,-0.33,-1.20,0.49,3.54,-3.78,0.00,0.00,0.00,173015040.00,2
0.09,-0.32,-1.19,4.03,1.04,0.55,0.00,0.00,0.00,173015040.00,2
0.12,-0.30,-1.18,-1.40,6.35,-14.04,0.00,0.00,0.00,173015040.00,2
-0.01,-0.29,-1.18,4.46,-6.53,2.26,0.00,0.00,0.00,173015040.00,2
0.11,-0.25,-1.17,8.91,-5.49,2.75,0.00,0.00,0.00,173015040.00,2
0.14,-0.30,-1.23,19.47,-13.31,3.23,0.00,0.00,0.00,173015040.00,2
0.11,-0.30,-1.18,1.89,0.00,-1.53,0.00,0.00,0.00,173015040.00,2
0.09,-0.31,-1.18,5.07,-2.50,-1.46,0.00,0.00,0.00,173015040.00,2
0.21,-0.32,-1.15,-21.67,-27.04,-9.89,0.00,0.00,0.00,173015040.00,2
0.43,0.13,-1.13,2.14,-6.29,0.12,0.00,0.00,0.00,173015040.00,2
0.33,0.27,-1.38,11.84,221.31,-47.30,0.00,0.00,0.00,173015040.00,2
0.12,-0.30,-1.22,-6.41,-2.75,-2.01,0.00,0.00,0.00,173015040.00,2
0.08,-0.34,-1.16,-11.05,2.75,-2.62,0.00,0.00,0.00,173015040.00,2
0.12,-0.29,-1.18,8.36,-7.69,0.92,0.00,0.00,0.00,173015040.00,2
0.10,-0.31,-1.20,7.69,7.51,4.39,0.00,0.00,0.00,173015040.00,2
0.09,-0.31,-1.22,2.62,0.18,2.01,0.00,0.00,0.00,173015040.00,2
0.07,-0.30,-1.18,-3.11,1.59,-6.71,0.00,0.00,0.00,173015040.00,2
0.08,-0.29,-1.20,1.28,-0.06,-0.55,0.00,0.00,0.00,173015040.00,2
0.08,-0.31,-1.18,4.27,-0.12,0.92,0.00,0.00,0.00,173015040.00,2
0.09,-0.29,-1.19,3.30,-0.49,-0.24,0.00,0.00,0.00,173015040.00,2
0.06,-0.31,-1.17,1.34,-0.43,1.77,0.00,0.00,0.00,0.00,2
0.06,-0.31,-1.20,3.17,0.24,-1.22,0.00,0.00,0.00,0.00,2
0.05,-0.31,-1.19,3.23,0.31,-0.18,0.00,0.00,0.00,0.00,2
0.05,-0.31,-1.18,3.17,0.61,-0.12,0.00,0.00,0.00,0.00,2
0.05,-0.31,-1.19,2.14,0.37,0.49,0.54,0.00,0.00,0.00,2
0.05,-0.31,-1.19,3.30,0.12,-0.61,0.69,0.00,0.00,0.00,2
0.05,-0.31,-1.18,2.20,0.31,-0.31,0.60,0.00,0.00,0.00,2
0.04,-0.31,-1.19,1.89,-0.49,1.46,0.00,0.00,0.00,0.00,2
0.05,-0.31,-1.18,2.93,-0.12,0.00,0.00,0.00,0.00,0.00,2
0.04,-0.31,-1.17,0.67,-3.11,12.63,0.00,0.00,0.00,0.00,2
0.05,-0.30,-1.19,3.60,0.06,-0.37,0.00,0.00,0.00,0.00,2
0.05,-0.30,-1.19,2.87,0.24,-0.06,0.00,0.00,0.00,0.00,2
0.06,-0.31,-1.20,0.31,4.27,2.44,0.00,0.00,0.00,0.00,2
0.05,-0.30,-1.19,2.26,0.37,0.79,0.00,0.00,0.00,0.00,2
0.05,-0.30,-1.19,2.75,0.31,0.79,0.00,0.00,0.00,0.00,2
0.05,-0.30,-1.19,2.93,0.49,-0.31,0.00,0.00,0.00,0.00,2
0.05,-0.29,-1.19,2.87,0.00,0.31,0.00,0.00,0.00,0.00,2
0.06,-0.30,-1.19,2.38,0.18,-0.18,0.00,0.00,0.00,0.00,2
0.05,-0.30,-1.19,3.17,0.00,0.00,0.00,0.00,0.00,0.00,2
0.05,-0.30,-1.20,3.05,0.24,0.73,0.00,0.00,0.00,0.00,2
0.05,-0.30,-1.19,2.56,0.12,0.31,0.00,0.00,0.00,0.00,2
0.05,-0.29,-1.20,3.11,-0.18,-0.24,0.00,0.00,0.00,0.00,2
0.05,-0.30,-1.19,2.99,-0.18,-0.43,0.00,0.00,0.00,0.00,2
0.06,-0.29,-1.19,0.24,2.20,8.79,0.00,0.00,0.00,0.00,2
0.06,-0.27,-1.19,4.21,-1.95,1.22,0.00,0.00,0.00,0.00,2
0.06,-0.27,-1.20,4.27,-0.43,-0.73,0.00,0.00,0.00,0.00,2
0.07,-0.27,-1.19,3.97,0.00,0.18,0.00,0.00,0.00,0.00,2
0.07,-0.27,-1.21,2.69,0.37,-1.34,0.00,0.00,0.00,0.00,2
0.07,-0.27,-1.20,2.69,-0.18,-0.73,0.00,0.00,0.00,0.00,2
0.06,-0.27,-1.20,3.30,-0.12,-0.12,0.00,0.00,0.00,0.00,2
0.05,-0.27,-1.19,4.64,-1.71,-1.77,0.00,0.00,0.00,0.00,2
0.06,-0.27,-1.20,2.62,0.37,0.18,0.00,0.00,0.00,0.00,2
0.06,-0.27,-1.20,3.17,-0.49,-0.12,0.00,0.00,0.00,0.00,2
0.06,-0.27,-1.20,2.44,0.67,-0.55,0.00,0.00,0.00,0.00,2
0.06,-0.28,-1.20,-0.12,0.12,-2.44,0.00,0.00,0.00,0.00,2
0.06,-0.28,-1.20,1.53,0.85,1.28,0.00,0.00,0.00,0.00,2
0.05,-0.27,-1.20,3.85,-0.43,-0.73,0.00,0.00,0.00,0.00,2
0.06,-0.28,-1.20,2.81,0.24,-0.92,0.00,0.00,0.00,0.00,2
0.07,-0.27,-1.22,-1.04,1.46,8.97,0.62,0.00,0.00,0.00,2
0.05,-0.27,-1.19,3.72,-0.06,-0.73,0.74,0.00,0.00,0.00,2
0.06,-0.28,-1.20,1.95,0.06,1.22,0.00,0.00,0.00,0.00,2
0.06,-0.27,-1.20,2.75,0.12,-0.73,0.00,0.00,0.00,0.00,2
0.07,-0.28,-1.19,5.49,2.26,-2.50,0.00,0.00,0.00,0.00,2
0.06,-0.27,-1.19,2.26,-0.49,0.67,0.00,0.00,0.00,0.00,2
0.05,-0.28,-1.20,3.30,-0.24,-0.37,0.00,0.00,0.00,0.00,2
0.06,-0.27,-1.19,2.56,0.24,0.55,0.00,0.00,0.00,0.00,2
0.06,-0.28,-1.20,2.93,0.06,-0.49,0.00,0.00,0.00,0.00,2
0.07,-0.28,-1.19,4.88,0.06,-4.09,0.00,0.00,0.00,0.00,2
0.02,-0.28,-1.21,2.08,0.79,-0.06,0.00,0.00,0.00,0.00,2
0.05,-0.28,-1.20,2.20,0.37,0.12,0.00,0.00,0.00,0.00,2
0.06,-0.27,-1.20,2.26,1.65,-2.26,0.00,0.00,0.00,0.00,2
0.04,-0.28,-1.19,3.17,1.65,1.83,0.00,0.00,0.00,0.00,2
0.04,-0.27,-1.22,-6.16,3.30,10.86,0.00,0.00,0.00,0.00,2
0.06,-0.28,-1.20,3.05,0.24,-0.43,0.00,0.00,0.00,0.00,2
0.06,-0.27,-1.22,1.40,3.05,1.10,0.00,0.00,0.00,0.00,2
0.06,-0.27,-1.20,2.99,0.12,1.04,0.00,0.00,0.00,0.00,2
0.05,-0.28,-1.18,4.21,-0.55,1.34,0.00,0.00,0.00,0.00,2
0.09,-0.27,-1.21,2.81,5.25,-0.79,0.00,0.00,0.00,0.00,2
0.04,-0.29,-1.20,5.92,-2.99,-6.59,0.00,0.00,0.00,0.00,2
0.04,-0.26,-1.22,5.98,-0.31,-6.04,0.00,0.00,0.00,0.00,2
0.08,-0.27,-1.17,5.25,-1.83,-3.72,0.00,0.00,0.00,0.00,2
0.06,-0.28,-1.21,3.30,0.06,-0.55,0.00,0.00,0.00,0.00,2
0.06,-0.28,-1.20,-0.98,2.62,-0.37,0.00,0.00,0.00,0.00,2
0.06,-0.28,-1.23,-0.61,-2.14,7.69,0.00,0.00,0.00,0.00,2
0.05,-0.28,-1.21,0.37,0.18,6.47,0.00,0.00,0.00,0.00,2
0.08,-0.26,-1.22,8.00,1.28,-15.63,0.00,0.00,0.00,0.00,2
0.06,-0.28,-1.20,4.03,-1.71,-2.93,0.00,0.00,0.00,0.00,2
0.05,-0.28,-1.21,-0.98,3.36,7.02,0.00,0.00,0.00,0.00,2
0.05,-0.28,-1.19,2.69,-0.85,1.53,0.00,0.00,0.00,0.00,2
0.17,-0.29,-1.18,8.97,-7.87,11.35,0.00,0.00,0.00,0.00,2
0.07,-0.29,-1.18,4.58,5.98,-1.77,0.00,0.00,0.00,0.00,2
0.04,-0.28,-1.20,0.73,-1.40,2.44,0.00,0.00,0.00,0.00,2
0.05,-0.29,-1.19,7.08,-0.85,-2.62,0.00,0.00,0.00,0.00,2
0.05,-0.28,-1.27,-4.03,-5.98,-3.30,0.00,0.00,0.00,0.00,2
0.06,-0.28,-1.18,8.12,-0.55,-4.09,0.00,0.00,0.00,0.00,2
0.05,-0.29,-1.20,5.49,-0.85,-1.77,0.00,0.00,0.00,0.00,2
0.05,-0.28,-1.21,1.28,-1.22,-0.98,0.00,0.00,0.00,0.00,2
-0.01,-0.29,-1.21,4.64,-13.85,-11.35,0.00,0.00,0.00,0.00,2
0.06,-0.27,-1.17,4.52,-1.59,-3.97,0.00,0.00,0.00,0.00,2
0.06,-0.27,-1.22,-0.37,1.28,0.06,0.00,0.00,0.00,0.00,2
0.04,-0.27,-1.23,1.22,2.08,2.08,0.00,0.00,0.00,0.00,2
0.08,-0.27,-1.18,2.69,1.77,-5.98,0.00,0.00,0.00,0.00,2
0.05,-0.27,-1.19,2.32,3.42,-2.56,0.00,0.00,0.00,0.00,2
0.04,-0.28,-1.20,1.95,3.05,0.06,0.00,0.00,0.00,0.00,2
0.05,-0.28,-1.20,6.41,-1.16,-1.95,0.00,0.00,0.00,0.00,2
0.02,-0.28,-1.18,8.54,-2.26,-5.07,0.00,0.00,0.00,0.00,2
0.04,-0.28,-1.20,3.36,0.49,0.98,0.00,0.00,0.00,0.00,2
0.05,-0.28,-1.18,-0.24,3.91,4.15,0.00,0.00,0.00,0.00,2
0.05,-0.29,-1.20,3.72,3.48,-0.79,0.00,0.00,0.00,0.00,2
0.06,-0.28,-1.20,1.34,0.31,1.89,0.00,0.00,0.00,0.00,2
0.06,-0.28,-1.20,2.87,-6.77,-1.77,0.00,0.00,0.00,0.00,2
0.05,-0.28,-1.19,1.95,-0.18,0.12,0.00,0.00,0.00,0.00,2
0.05,-0.28,-1.20,2.81,0.55,0.37,0.00,0.00,0.00,0.00,2
0.04,-0.29,-1.19,2.93,-0.43,1.22,0.00,0.00,0.00,0.00,2
0.05,-0.28,-1.20,3.23,-0.06,-0.49,0.00,0.00,0.00,0.00,2
0.05,-0.28,-1.20,3.54,-0.18,0.00,0.00,0.00,0.00,0.00,2
0.04,-0.28,-1.20,2.99,0.18,0.12,0.00,0.00,0.00,0.00,2
0.05,-0.28,-1.20,2.81,0.31,0.43,0.00,0.00,0.00,0.00,2
0.06,-0.27,-1.18,3.60,4.70,-4.82,0.00,0.00,0.00,0.00,2
0.04,-0.28,-1.21,3.36,1.16,-0.31,0.00,0.00,0.00,0.00,2
0.05,-0.27,-1.19,3.48,0.49,-0.85,0.00,0.00,0.00,0.00,2
0.05,-0.27,-1.20,2.44,0.37,-0.12,0.00,0.00,0.00,0.00,2
0.05,-0.27,-1.20,2.69,0.24,0.24,0.00,0.00,0.00,0.00,2
0.05,-0.27,-1.20,3.11,0.24,-0.55,0.00,0.00,0.00,0.00,2
0.06,-0.27,-1.20,3.30,-0.49,-1.16,0.00,0.00,0.00,0.00,2
0.05,-0.28,-1.20,2.44,0.18,-0.12,0.00,0.00,0.00,0.00,2
0.05,-0.28,-1.19,2.69,0.06,-0.55,0.00,0.00,0.00,0.00,2
0.05,-0.27,-1.20,3.11,0.12,-0.49,0.00,0.00,0.00,0.00,2
0.05,-0.27,-1.19,3.30,0.00,-0.73,0.00,0.00,0.00,0.00,2
0.05,-0.27,-1.20,2.81,0.06,0.00,0.00,0.00,0.00,0.00,2
0.05,-0.27,-1.20,2.62,0.06,0.43,0.00,0.00,0.00,0.00,2
0.05,-0.27,-1.20,2.99,0.06,-0.37,0.00,0.00,0.00,0.00,2
0.05,-0.27,-1.20,3.11,0.18,-0.67,0.00,0.00,0.00,0.00,2
0.05,-0.27,-1.20,2.69,0.12,0.00,0.00,0.00,0.00,0.00,2
0.05,-0.27,-1.20,2.69,0.06,-0.12,0.00,0.00,0.00,0.00,2
0.05,-0.27,-1.20,3.30,0.24,-0.24,0.00,0.00,0.00,0.00,2
0.05,-0.27,-1.20,2.99,0.18,-0.06,0.00,0.00,0.00,0.00,2
0.05,-0.27,-1.20,2.93,0.00,-0.31,0.00,0.00,0.00,0.00,2
0.05,-0.27,-1.21,2.93,0.31,-0.55,0.00,0.00,0.00,0.00,2
0.05,-0.27,-1.20,2.81,0.31,-0.67,0.00,0.00,0.00,0.00,2
0.04,-0.27,-1.20,3.23,0.12,-0.49,0.00,0.00,0.00,0.00,2
0.05,-0.27,-1.19,2.75,0.24,0.24,0.00,0.00,0.00,0.00,2
0.05,-0.27,-1.20,3.05,-0.31,-0.24,0.00,0.00,0.00,0.00,2
0.05,-0.27,-1.20,2.56,0.37,0.49,0.00,0.00,0.00,0.00,2
0.03,-0.28,-1.18,10.25,-5.19,-3.36,0.00,0.00,0.00,0.00,2
0.05,-0.27,-1.20,2.62,-0.06,1.34,0.00,0.00,0.00,0.00,2
0.05,-0.27,-1.20,5.92,-5.43,3.91,0.00,0.00,0.00,0.00,2
0.04,-0.27,-1.21,0.98,-0.06,3.17,0.00,0.00,0.00,0.00,2
0.05,-0.27,-1.20,4.64,0.18,-4.52,0.58,0.00,0.00,0.00,2
0.06,-0.27,-1.20,1.59,0.31,1.53,0.82,0.00,0.00,0.00,2
0.05,-0.26,-1.20,2.69,1.65,-2.08,0.00,0.00,0.00,0.00,2
0.05,-0.26,-1.21,2.75,0.24,1.10,0.00,0.00,0.00,0.00,2
0.08,-0.27,-1.18,2.44,-1.10,-5.31,0.00,0.00,0.00,0.00,2
0.07,-0.27,-1.18,5.49,-2.99,-7.57,0.00,0.00,0.00,0.00,2
0.06,-0.26,-1.20,0.79,-6.10,4.70,0.00,0.00,0.00,0.00,2
0.04,-0.27,-1.21,-2.75,-1.04,19.17,0.00,0.00,0.00,0.00,2
0.03,-0.25,-1.21,-3.11,6.04,12.51,0.00,0.00,0.00,0.00,2
0.06,-0.26,-1.21,3.72,-0.85,-0.31,0.00,0.00,0.00,0.00,2
0.03,-0.26,-1.19,0.06,-1.65,7.75,0.00,0.00,0.00,0.00,2
0.06,-0.27,-1.19,4.52,-1.34,-4.09,0.00,0.00,0.00,0.00,2
0.04,-0.27,-1.19,4.09,-0.98,1.95,0.00,0.00,0.00,0.00,2
0.07,-0.27,-1.19,4.21,1.83,-0.55,0.00,0.00,0.00,0.00,2
0.12,-0.27,-1.20,-0.49,6.04,-1.95,0.00,0.00,0.00,0.00,2
0.08,-0.25,-1.18,-3.23,8.67,12.15,0.00,0.00,0.00,0.00,2
0.08,-0.26,-1.22,0.61,0.92,-2.01,0.00,0.00,0.00,0.00,2
-0.00,-0.26,-1.20,2.87,-6.59,6.59,0.00,0.00,0.00,0.00,2
0.02,-0.20,-1.18,-10.19,4.64,11.11,0.00,0.00,0.00,0.00,2
0.07,-0.25,-1.20,-1.04,1.77,2.08,0.00,0.00,0.00,0.00,2
0.08,-0.25,-1.19,-1.34,5.62,3.66,0.00,0.00,0.00,0.00,2
0.05,-0.27,-1.21,1.95,0.31,1.16,0.00,0.00,0.00,0.00,2
0.06,-0.27,-1.20,2.56,1.71,2.50,0.00,0.00,0.00,0.00,2
0.06,-0.26,-1.22,1.71,-2.87,0.31,0.00,0.00,0.00,0.00,2
0.03,-0.28,-1.20,2.26,-2.69,7.63,0.00,0.00,0.00,0.00,2
0.04,-0.27,-1.20,2.32,1.04,2.81,0.00,0.00,0.00,0.00,2
0.06,-0.27,-1.21,3.48,-0.31,5.80,0.00,0.00,0.00,0.00,2
0.05,-0.28,-1.21,2.62,0.31,-1.71,0.00,0.00,0.00,0.00,2
0.06,-0.27,-1.20,4.09,-1.40,0.98,0.00,0.00,0.00,0.00,2
0.06,-0.27,-1.20,2.93,0.55,-0.61,0.00,0.00,0.00,0.00,2
0.06,-0.24,-1.19,-3.85,0.67,3.91,0.00,0.00,0.00,0.00,2
0.06,-0.25,-1.18,21.12,-5.55,-0.06,0.00,0.00,0.00,0.00,2
0.04,-0.28,-1.17,1.46,-4.94,6.16,0.00,0.00,0.00,0.00,2
0.05,-0.26,-1.21,2.14,0.37,1.34,0.00,0.00,0.00,0.00,2
0.07,-0.26,-1.20,-0.67,-2.44,-4.76,0.00,0.00,0.00,0.00,2
0.04,-0.27,-1.21,-1.40,-1.04,2.93,0.00,0.00,0.00,0.00,2
0.05,-0.26,-1.21,1.53,1.16,1.16,0.00,0.00,0.00,0.00,2
0.05,-0.27,-1.20,-0.24,0.61,-1.71,0.00,0.00,0.00,0.00,2
0.05,-0.28,-1.18,10.31,-9.28,-0.31,0.00,0.00,0.00,0.00,2
0.02,-0.25,-1.23,3.42,-1.28,-1.04,0.00,0.00,0.00,0.00,2
0.07,-0.26,-1.21,4.15,4.58,0.24,0.00,0.00,0.00,0.00,2
0.05,-0.26,-1.20,1.28,1.28,-2.01,0.00,0.00,0.00,0.00,2
0.05,-0.26,-1.22,2.26,3.05,1.95,0.00,0.00,0.00,0.00,2
0.05,-0.26,-1.20,2.69,-4.58,-1.34,0.00,0.00,0.00,0.00,2
0.04,-0.27,-1.18,3.60,1.46,4.39,0.00,0.00,0.00,0.00,2
0.05,-0.26,-1.20,3.78,-1.65,1.65,0.00,0.00,0.00,0.00,2
0.05,-0.26,-1.21,1.59,0.31,0.73,0.00,0.00,0.00,0.00,2
0.06,-0.26,-1.20,2.99,-0.18,0.43,0.00,0.00,0.00,0.00,2
0.05,-0.27,-1.20,2.81,0.18,0.37,0.00,0.00,0.00,0.00,2
0.05,-0.29,-1.17,1.46,3.66,3.48,0.00,0.00,0.00,0.00,2
0.02,-0.29,-1.19,3.72,-1.40,-1.22,0.00,0.00,0.00,0.00,2
0.07,-0.26,-1.22,0.92,0.43,3.54,0.00,0.00,0.00,0.00,2
0.06,-0.27,-1.20,3.17,-0.06,-0.24,0.00,0.00,0.00,0.00,2
0.06,-0.27,-1.18,-0.18,0.24,1.28,0.00,0.00,0.00,0.00,2
0.08,-0.20,-1.25,7.08,0.73,1.71,0.00,0.00,0.00,0.00,2
0.04,-0.25,-1.21,4.46,1.34,-2.87,0.00,0.00,0.00,0.00,2
0.07,-0.26,-1.21,2.38,0.67,-2.56,0.00,0.00,0.00,0.00,2
0.05,-0.25,-1.22,3.23,-1.34,1.46,0.00,0.00,0.00,0.00,2
0.06,-0.26,-1.20,4.09,-0.12,-0.92,0.00,0.00,0.00,0.00,2
0.06,-0.25,-1.20,3.36,0.06,-0.12,0.00,0.00,0.00,0.00,2
0.06,-0.26,-1.21,3.17,0.12,-1.34,0.00,0.00,0.00,0.00,2
0.05,-0.26,-1.20,2.62,0.12,-0.24,0.00,0.00,0.00,0.00,2
0.07,-0.26,-1.21,3.05,0.00,-1.22,0.00,0.00,0.00,0.00,2
0.05,-0.25,-1.20,1.89,0.37,0.98,0.00,0.00,0.00,0.00,2
0.05,-0.25,-1.21,2.87,0.73,-0.73,0.00,0.00,0.00,0.00,2
0.06,-0.26,-1.20,2.75,-0.06,-0.55,0.00,0.00,0.00,0.00,2
0.05,-0.25,-1.21,2.81,0.00,-0.43,0.00,0.00,0.00,0.00,2
0.07,-0.26,-1.21,1.53,-0.98,-1.65,0.00,0.00,0.00,0.00,2
0.06,-0.26,-1.20,3.23,0.12,0.61,0.00,0.00,0.00,0.00,2
0.06,-0.25,-1.23,-2.81,0.18,-1.46,0.00,0.00,0.00,0.00,2
0.05,-0.26,-1.20,2.81,0.31,0.18,0.00,0.00,0.00,0.00,2
0.07,-0.26,-1.20,1.53,0.85,1.10,0.00,0.00,0.00,0.00,2
0.06,-0.26,-1.21,1.59,2.14,5.31,0.00,0.00,0.00,0.00,2
0.06,-0.26,-1.20,2.81,0.37,-0.06,0.00,0.00,0.00,0.00,2
0.06,-0.25,-1.21,3.97,-0.18,-4.15,0.00,0.00,0.00,0.00,2
0.07,-0.27,-1.20,3.66,1.71,-0.79,0.00,0.00,0.00,0.00,2
0.07,-0.25,-1.22,4.09,-1.22,0.49,0.00,0.00,0.00,0.00,2
0.06,-0.26,-1.20,3.42,0.00,-2.38,0.00,0.00,0.00,0.00,2
0.05,-0.26,-1.21,2.20,-0.79,0.24,0.00,0.00,0.00,0.00,2
0.06,-0.26,-1.20,3.17,-0.24,-0.98,0.00,0.00,0.00,0.00,2
0.06,-0.26,-1.21,2.26,-0.43,0.98,0.00,0.00,0.00,0.00,2
0.06,-0.26,-1.20,4.82,1.10,-0.55,0.00,0.00,0.00,0.00,2
0.05,-0.26,-1.21,3.30,0.31,-0.98,0.00,0.00,0.00,0.00,2
0.06,-0.26,-1.20,2.93,0.06,0.06,0.00,0.00,0.00,0.00,2
0.06,-0.26,-1.20,2.99,-0.31,0.85,0.00,0.00,0.00,0.00,2
0.06,-0.26,-1.19,2.99,0.49,0.31,0.00,0.00,0.00,0.00,2
0.05,-0.26,-1.21,3.60,0.00,-0.49,0.00,0.00,0.00,0.00,2
0.06,-0.26,-1.20,2.75,-0.18,-0.06,0.00,0.00,0.00,0.00,2
0.05,-0.26,-1.21,3.60,-0.43,-1.71,0.00,0.00,0.00,0.00,2
0.05,-0.26,-1.20,2.56,1.65,-0.85,0.00,0.00,0.00,0.00,2
0.06,-0.26,-1.20,2.81,0.18,-0.31,0.00,0.00,173015040.00,0.11,2
0.06,-0.25,-1.20,2.69,2.08,0.55,0.00,0.00,173015040.00,0.10,2
0.05,-0.26,-1.21,3.36,-0.06,-1.22,0.00,0.00,173015040.00,0.11,2
0.05,-0.27,-1.20,4.03,0.79,-1.59,0.00,0.00,0.00,0.00,2
0.06,-0.27,-1.20,2.20,1.28,0.37,0.00,0.00,0.00,0.00,2
0.06,-0.26,-1.21,2.69,-0.12,0.06,0.00,0.00,0.00,0.00,2
0.02,-0.26,-1.21,2.99,-5.49,6.16,0.00,0.00,0.00,0.00,2
0.08,-0.26,-1.23,0.43,3.91,-2.50,0.00,0.00,0.00,0.00,2
0.06,-0.26,-1.20,3.42,0.00,-1.04,0.00,0.00,0.00,0.00,2
0.06,-0.26,-1.20,2.87,0.06,0.24,0.00,0.00,0.00,0.00,2
0.06,-0.26,-1.18,4.88,-0.49,-0.49,0.00,0.00,0.00,0.00,2
0.05,-0.26,-1.20,2.14,-0.79,0.98,0.00,0.00,0.00,0.00,2
0.10,-0.20,-1.21,2.81,8.85,6.65,0.00,0.00,0.00,0.00,2
0.05,-0.26,-1.20,2.81,-0.18,0.06,0.00,0.00,0.00,0.00,2
0.05,-0.26,-1.20,0.79,2.93,2.75,0.00,0.00,0.00,0.00,2
0.05,-0.27,-1.21,2.38,0.06,0.55,0.00,0.00,0.00,0.00,2
0.05,-0.27,-1.20,2.87,-0.12,-0.37,0.00,0.00,0.00,0.00,2
0.05,-0.26,-1.21,2.62,0.00,-0.49,0.00,0.00,0.00,0.00,2
0.05,-0.26,-1.20,2.62,-0.31,-0.43,0.00,0.00,0.00,0.00,2
0.06,-0.26,-1.20,2.44,0.12,-0.12,0.00,0.00,0.00,0.00,2
0.06,-0.27,-1.19,3.11,-0.18,-0.31,0.00,0.00,0.00,0.00,2
0.05,-0.26,-1.20,2.99,0.31,-0.55,0.00,0.00,0.00,0.00,2
0.06,-0.26,-1.20,3.30,0.37,0.24,0.00,0.00,0.00,0.00,2
0.06,-0.26,-1.20,3.36,0.06,-1.16,0.00,0.00,0.00,0.00,2
0.06,-0.26,-1.20,3.05,0.06,-0.12,0.00,0.00,0.00,0.00,2
0.06,-0.27,-1.20,2.26,0.06,1.22,0.00,0.00,0.00,0.00,2
0.05,-0.26,-1.20,2.81,-0.06,0.43,0.00,0.00,0.00,0.00,2
0.06,-0.26,-1.19,3.23,0.06,-0.49,0.00,0.00,0.00,0.00,2
0.06,-0.26,-1.20,2.81,0.24,-0.12,0.00,0.00,0.00,0.00,2
0.06,-0.26,-1.20,3.11,-0.18,0.00,0.00,0.00,0.00,0.00,2
0.06,-0.26,-1.20,2.75,-0.12,-0.37,0.00,0.00,0.00,0.00,2
0.06,-0.26,-1.21,2.62,-0.06,0.18,0.00,0.00,0.00,0.00,2
0.06,-0.26,-1.20,3.11,0.12,-0.18,0.00,0.00,0.00,0.00,2
0.06,-0.27,-1.19,2.99,0.00,0.31,0.00,0.00,0.00,0.00,2
0.05,-0.26,-1.21,2.32,0.24,0.67,0.00,0.00,0.00,0.00,2
0.05,-0.26,-1.20,3.17,-0.12,-0.49,0.00,0.00,0.00,0.00,2
0.06,-0.26,-1.20,2.99,-0.06,-0.43,0.00,0.00,0.00,0.00,2
0.05,-0.27,-1.20,2.87,-0.06,0.06,0.00,0.00,0.00,0.00,2
0.05,-0.26,-1.20,2.81,0.18,0.49,0.00,0.00,0.00,0.00,2
0.06,-0.26,-1.20,2.81,0.00,-0.79,0.00,0.00,0.00,0.00,2
0.06,-0.27,-1.20,2.50,-0.18,0.55,0.00,0.00,0.00,0.00,2
0.06,-0.26,-1.20,2.99,0.12,-0.79,0.00,0.00,0.00,0.00,2
0.06,-0.26,-1.20,2.75,0.24,0.06,0.00,0.00,0.00,0.00,2
0.05,-0.26,-1.20,2.38,0.18,0.43,0.00,0.00,0.00,0.00,2
0.06,-0.26,-1.21,3.11,0.31,-0.85,0.00,0.00,0.00,0.00,2
0.05,-0.26,-1.20,2.93,0.00,-0.43,0.00,0.00,0.00,0.00,2
0.05,-0.26,-1.21,1.95,0.85,0.79,0.00,0.00,0.00,0.00,2
0.06,-0.27,-1.20,2.69,-0.06,0.92,0.00,0.00,0.00,0.00,2
0.06,-0.26,-1.21,2.56,0.18,0.00,0.00,0.00,0.00,0.00,2
0.06,-0.26,-1.20,3.30,0.24,-0.67,0.00,0.00,0.00,0.00,2
0.06,-0.26,-1.20,2.69,-0.06,0.06,0.00,0.00,0.00,0.00,2
0.06,-0.26,-1.20,3.17,0.12,-0.73,0.00,0.00,0.00,0.00,2
0.05,-0.26,-1.20,3.48,0.18,-1.22,0.00,0.00,0.00,0.00,2
0.05,-0.27,-1.20,2.32,-0.31,0.43,0.00,0.00,0.00,0.00,2
0.06,-0.26,-1.20,2.87,0.18,0.12,0.00,0.00,0.00,0.00,2
0.05,-0.26,-1.20,2.93,0.12,-0.12,0.00,0.00,0.00,0.00,2
0.06,-0.27,-1.20,2.87,0.24,-0.12,0.00,0.00,0.00,0.00,2
0.06,-0.26,-1.21,2.81,0.18,0.06,0.00,0.00,0.00,0.00,2
0.05,-0.26,-1.21,2.99,-0.12,0.37,0.00,0.00,0.00,0.00,2
0.05,-0.26,-1.20,2.93,0.00,-0.67,0.00,0.00,0.00,0.00,2
0.06,-0.26,-1.21,2.81,-0.06,0.24,0.00,0.00,0.00,0.00,2
0.05,-0.26,-1.20,2.62,-0.18,0.55,0.00,0.00,0.00,0.00,2
0.06,-0.26,-1.20,3.05,-0.12,-0.43,0.00,0.00,0.00,0.00,2
0.06,-0.26,-1.19,2.81,0.06,0.37,0.00,0.00,0.00,0.00,2
0.06,-0.26,-1.20,2.69,-0.18,0.24,0.00,0.00,0.00,0.00,2
0.05,-0.26,-1.21,3.17,0.06,0.00,0.00,0.00,0.00,0.00,2
0.05,-0.26,-1.20,2.81,0.24,-0.43,0.00,0.00,0.00,0.00,2
0.06,-0.26,-1.20,2.99,-0.24,0.31,0.00,0.00,0.00,0.00,2
0.06,-0.26,-1.20,2.93,0.00,-0.49,0.00,0.00,0.00,0.00,2
0.06,-0.26,-1.21,2.93,0.00,0.00,0.00,0.00,0.00,0.00,2
0.06,-0.26,-1.20,2.69,0.06,-0.37,0.00,0.00,0.00,0.00,2
0.06,-0.26,-1.20,2.38,0.12,0.92,0.00,0.00,0.00,0.00,2
0.05,-0.26,-1.21,2.81,-0.06,-0.31,0.00,0.00,0.00,0.00,2
0.06,-0.26,-1.20,2.50,-0.06,0.31,0.00,0.00,0.00,0.00,2
0.06,-0.26,-1.20,3.11,0.18,-0.18,0.00,0.00,0.00,0.00,2
0.05,-0.26,-1.20,2.56,-0.18,0.79,0.00,0.00,0.00,0.00,2
0.06,-0.26,-1.20,3.30,0.24,-0.18,0.00,0.00,0.00,0.00,2
0.05,-0.26,-1.20,2.56,0.24,0.12,0.00,0.00,0.00,0.00,2
0.06,-0.26,-1.20,2.56,0.37,-0.12,0.00,0.00,0.00,0.00,2
0.05,-0.26,-1.20,2.62,0.18,0.61,0.00,0.00,0.00,0.00,2
0.05,-0.26,-1.21,2.75,-0.06,-0.73,0.00,0.00,0.00,0.00,2
0.06,-0.27,-1.21,3.05,0.12,-0.18,0.00,0.00,0.00,0.00,2
0.06,-0.27,-1.20,2.75,0.18,-0.31,0.00,0.00,0.00,0.00,2
0.06,-0.26,-1.20,2.62,-0.06,-0.55,0.00,0.00,0.00,0.00,2
0.05,-0.26,-1.20,3.05,-0.24,-0.06,0.00,0.00,0.00,0.00,2
0.05,-0.26,-1.20,3.17,0.06,-0.55,0.00,0.00,0.00,0.00,2
0.06,-0.26,-1.21,2.75,0.06,-0.18,0.00,0.00,0.00,0.00,2
0.06,-0.26,-1.21,3.11,0.00,-0.31,0.00,0.00,0.00,0.00,2
0.06,-0.26,-1.21,2.38,-0.24,0.61,0.00,0.00,0.00,0.00,2
0.06,-0.26,-1.20,2.81,0.18,0.61,0.00,0.00,0.00,0.00,2
0.06,-0.26,-1.20,2.62,0.18,0.49,0.00,0.00,0.00,0.00,2
0.05,-0.26,-1.20,3.23,0.24,0.06,0.00,0.00,0.00,0.00,2
0.06,-0.26,-1.20,2.87,-0.31,-0.37,0.00,0.00,0.00,0.00,2
0.05,-0.26,-1.20,2.50,0.00,0.61,0.00,0.00,0.00,0.00,2
0.05,-0.26,-1.21,2.44,0.12,-0.06,0.00,0.00,0.00,0.00,2
0.05,-0.26,-1.20,2.50,-0.06,0.98,0.00,0.00,0.00,0.00,2
0.06,-0.26,-1.20,2.99,-0.31,-0.43,0.00,0.00,0.00,0.00,2
0.06,-0.27,-1.20,3.17,-0.24,-0.12,0.00,0.00,0.00,0.00,2
0.06,-0.27,-1.21,2.56,-0.12,-0.12,0.00,0.00,0.00,0.00,2
0.06,-0.26,-1.20,2.75,0.24,-0.37,0.00,0.00,0.00,0.00,2
0.05,-0.26,-1.20,2.50,0.06,-0.43,0.00,0.00,0.00,0.00,2
0.06,-0.27,-1.20,3.17,0.00,0.31,0.00,0.00,0.00,0.00,2
0.06,-0.26,-1.21,2.69,0.12,-0.06,0.00,0.00,0.00,0.00,2
0.06,-0.26,-1.21,3.05,-0.06,0.06,0.00,0.00,0.00,0.00,2
0.06,-0.27,-1.20,3.05,0.06,0.18,0.00,0.00,0.00,0.00,2
0.06,-0.26,-1.21,2.99,0.24,-0.06,0.00,0.00,0.00,0.00,2
0.05,-0.26,-1.20,2.93,-0.12,-0.31,0.00,0.00,0.00,0.00,2
0.06,-0.26,-1.20,2.87,-0.18,-0.06,0.00,0.00,0.00,0.00,2
0.06,-0.26,-1.20,2.87,0.31,-0.18,0.00,0.00,0.00,0.00,2
0.05,-0.26,-1.20,2.62,0.12,-0.06,0.00,0.00,0.00,0.00,2
0.06,-0.26,-1.20,2.99,0.12,-0.61,0.00,0.00,0.00,0.00,2
0.06,-0.26,-1.21,2.93,0.12,0.67,0.00,0.00,0.00,0.00,2
0.06,-0.26,-1.21,2.75,0.24,0.92,0.00,0.00,0.00,0.00,2
0.06,-0.26,-1.21,2.87,0.31,-0.49,0.00,0.00,0.00,0.00,2
0.06,-0.26,-1.20,2.87,-0.18,-0.37,0.00,0.00,0.00,0.00,2
0.06,-0.27,-1.20,3.05,0.31,0.18,0.00,0.00,0.00,0.00,2
0.05,-0.26,-1.20,2.99,0.24,-1.59,0.00,0.00,0.00,0.00,2
0.06,-0.26,-1.20,3.48,0.37,-1.65,0.00,0.00,0.00,0.00,2
0.05,-0.26,-1.21,2.81,-0.24,-0.18,0.00,0.00,0.00,0.00,2
0.05,-0.26,-1.21,2.93,0.00,-0.31,0.00,0.00,0.00,0.00,2
0.06,-0.26,-1.21,3.60,-0.24,-0.49,0.00,0.00,0.00,0.00,2
0.06,-0.26,-1.20,2.87,-0.12,0.12,0.00,0.00,0.00,0.00,2
0.05,-0.26,-1.20,2.62,0.06,0.12,0.00,0.00,0.00,0.00,2
0.05,-0.26,-1.20,2.81,-0.12,-0.43,0.00,0.00,0.00,0.00,2
0.05,-0.26,-1.20,2.56,0.12,0.31,0.00,0.00,0.00,0.00,2
0.06,-0.26,-1.20,2.69,-0.06,0.06,0.00,0.00,0.00,0.00,2
0.06,-0.26,-1.21,2.87,0.18,-0.49,0.00,0.00,0.00,0.00,2
0.06,-0.26,-1.20,3.42,-0.12,-0.55,0.00,0.00,0.00,0.00,2
0.05,-0.26,-1.20,2.93,-0.24,-0.61,0.00,0.00,0.00,0.00,2
0.06,-0.26,-1.20,3.11,0.00,-0.24,0.00,0.00,0.00,0.00,2
0.06,-0.26,-1.20,2.62,0.31,0.00,0.00,0.00,0.00,0.00,2
0.06,-0.26,-1.20,2.93,0.49,-0.61,0.00,0.00,0.00,0.00,2
0.05,-0.26,-1.20,2.69,-0.06,-0.49,0.00,0.00,0.00,0.00,2
0.05,-0.26,-1.20,3.11,0.06,-1.04,0.00,0.00,0.00,0.00,2
0.05,-0.26,-1.20,2.32,0.24,0.24,0.00,0.00,0.00,0.00,2
0.06,-0.26,-1.21,2.81,0.06,0.06,0.00,0.00,0.00,0.00,2
0.06,-0.26,-1.20,2.50,0.06,-0.18,0.00,0.00,0.00,0.00,2
0.06,-0.26,-1.20,2.87,0.31,-0.55,0.00,0.00,0.00,0.00,2
0.06,-0.26,-1.20,2.75,0.12,-0.12,0.00,0.00,0.00,0.00,2
0.06,-0.26,-1.20,2.81,-0.24,0.06,0.00,0.00,0.00,0.00,2
0.06,-0.26,-1.20,2.87,-0.12,0.79,0.00,0.00,0.00,0.00,2
0.06,-0.27,-1.19,2.75,-0.06,0.43,0.00,0.00,0.00,0.00,2
0.06,-0.26,-1.21,3.54,-0.43,-1.28,0.00,0.00,0.00,0.00,2
0.06,-0.26,-1.20,2.50,0.18,0.55,0.00,0.00,0.00,0.00,2
0.06,-0.26,-1.21,2.56,0.00,0.12,0.00,0.00,0.00,0.00,2
0.05,-0.26,-1.21,3.17,0.43,0.00,0.00,0.00,0.00,0.00,2
0.05,-0.26,-1.21,2.20,0.73,0.24,0.00,0.00,0.00,0.00,2
0.05,-0.26,-1.20,3.36,0.43,-1.28,0.79,0.00,0.00,0.00,2
0.05,-0.26,-1.20,3.78,0.00,-1.71,0.97,0.00,0.00,0.00,2
0.05,-0.26,-1.21,2.38,1.16,-1.46,0.00,0.00,0.00,0.00,2
0.05,-0.26,-1.20,3.17,0.37,-0.85,0.00,0.00,0.00,0.00,2
0.05,-0.26,-1.21,3.11,-0.67,-0.49,0.00,0.00,0.00,0.00,2
0.08,-0.25,-1.19,1.28,6.84,-2.62,0.00,0.00,0.00,0.00,2
0.04,-0.26,-1.20,0.06,-0.24,5.92,0.00,0.00,0.00,0.00,2
0.08,-0.25,-1.20,3.91,0.73,-3.42,0.00,0.00,0.00,0.00,2
0.07,-0.26,-1.22,-3.11,-3.30,15.38,0.00,0.00,0.00,0.00,2
0.06,-0.25,-1.21,2.08,1.04,-3.91,0.00,0.00,0.00,0.00,2
0.07,-0.26,-1.19,2.32,-1.65,2.08,0.00,0.00,0.00,0.00,2
0.05,-0.23,-1.23,3.05,1.71,0.00,0.00,0.00,0.00,0.00,2
0.05,-0.27,-1.18,5.86,-1.04,-4.03,0.00,0.00,0.00,0.00,2
0.04,-0.26,-1.19,1.95,-1.40,6.29,0.00,0.00,0.00,0.00,2
0.04,-0.25,-1.21,3.48,-3.72,-5.25,0.00,0.00,0.00,0.00,2
0.06,-0.30,-1.27,3.78,-7.45,5.13,0.00,0.00,0.00,0.00,2
0.07,-0.27,-1.20,2.26,-1.65,-2.56,0.00,0.00,0.00,0.00,2
0.06,-0.26,-1.25,4.39,-0.61,-7.51,0.00,0.00,0.00,0.00,2
0.03,-0.29,-1.18,2.69,-15.56,12.63,0.00,0.00,0.00,0.00,2
0.05,-0.28,-1.19,3.48,0.00,-4.33,0.00,0.00,0.00,0.00,2
0.06,-0.28,-1.21,0.92,3.36,4.15,0.00,0.00,0.00,0.00,2
0.04,-0.28,-1.20,3.85,-2.38,0.73,0.00,0.00,0.00,0.00,2
0.05,-0.28,-1.18,5.37,-2.99,-0.61,0.00,0.00,0.00,0.00,2
0.05,-0.26,-1.18,-0.24,1.28,2.08,0.00,0.00,0.00,0.00,2
0.07,-0.28,-1.20,2.69,0.31,0.73,0.00,0.00,0.00,0.00,2
0.05,-0.27,-1.20,2.99,0.79,-2.44,0.00,0.00,0.00,0.00,2
0.06,-0.26,-1.20,2.87,0.12,-0.67,0.00,0.00,0.00,0.00,2
0.06,-0.28,-1.19,4.46,-0.79,-3.91,0.00,0.00,0.00,0.00,2
0.06,-0.27,-1.19,4.76,-0.49,-2.38,0.00,0.00,0.00,0.00,2
0.10,-0.29,-1.21,1.95,1.46,-1.71,0.00,0.00,0.00,0.00,2
0.08,-0.27,-1.21,1.28,10.19,2.14,0.00,0.00,0.00,0.00,2
0.09,-0.26,-1.24,-0.79,4.21,-1.10,0.00,0.00,0.00,0.00,2
0.07,-0.26,-1.21,4.52,0.85,-6.35,0.00,0.00,0.00,0.00,2
0.04,-0.28,-1.18,3.23,-5.25,6.04,0.00,0.00,0.00,0.00,2
0.06,-0.27,-1.19,3.42,-0.06,-0.12,0.00,0.00,0.00,0.00,2
0.07,-0.27,-1.20,3.91,-0.49,-1.71,0.00,0.00,0.00,0.00,2
0.07,-0.27,-1.21,3.11,-0.31,-2.44,0.00,0.00,0.00,0.00,2
0.05,-0.27,-1.19,3.11,-1.71,0.18,0.00,0.00,0.00,0.00,2
0.05,-0.27,-1.20,-1.04,1.59,-0.06,0.00,0.00,0.00,0.00,2
0.09,-0.27,-1.20,2.44,1.34,-3.11,0.00,0.00,0.00,0.00,2
0.10,-0.27,-1.21,2.99,2.14,-1.83,0.00,0.00,0.00,0.00,2
0.13,-0.27,-1.25,5.98,5.37,-14.59,0.00,0.00,0.00,0.00,2
0.06,-0.27,-1.20,1.46,0.49,0.12,0.00,0.00,0.00,0.00,2
0.06,-0.27,-1.20,2.87,-0.06,1.53,0.00,0.00,0.00,0.00,2
0.07,-0.26,-1.21,3.30,-0.73,0.24,0.00,0.00,0.00,0.00,2
0.09,-0.28,-1.13,-4.03,8.73,12.94,0.00,0.00,0.00,0.00,2
0.05,-0.28,-1.19,4.82,-0.55,7.87,0.00,0.00,0.00,0.00,2
0.05,-0.27,-1.18,4.15,-0.73,-0.61,0.00,0.00,0.00,0.00,2
0.04,-0.27,-1.20,3.54,1.40,-0.67,0.00,0.00,0.00,0.00,2
0.07,-0.27,-1.19,2.56,1.40,0.18,0.00,0.00,0.00,0.00,2
0.05,-0.27,-1.16,-4.21,4.21,11.41,0.00,0.00,0.00,0.00,2
0.06,-0.27,-1.19,3.36,-2.99,0.24,0.00,0.00,0.00,0.00,2
0.04,-0.28,-1.19,0.49,-2.75,4.70,0.00,0.00,0.00,0.00,2
0.06,-0.26,-1.21,3.05,4.58,-3.78,0.00,0.00,0.00,0.00,2
0.05,-0.26,-1.19,4.03,-0.61,0.43,0.00,0.00,0.00,0.00,2
0.07,-0.27,-1.20,4.52,0.79,-5.98,0.00,0.00,0.00,0.00,2
0.08,-0.26,-1.17,5.98,-2.99,-2.56,0.00,0.00,0.00,0.00,2
0.07,-0.27,-1.20,4.64,-0.24,-4.03,0.00,0.00,0.00,0.00,2
0.05,-0.28,-1.15,-1.10,9.70,7.69,0.00,0.00,0.00,0.00,2
0.06,-0.27,-1.19,7.14,-0.37,-5.37,0.00,0.00,0.00,0.00,2
0.01,-0.26,-1.19,4.09,0.55,2.32,0.00,0.00,0.00,0.00,2
0.03,-0.29,-1.14,7.45,-7.20,3.30,0.00,0.00,0.00,0.00,2
0.06,-0.27,-1.20,4.70,-2.01,-7.08,0.00,0.00,0.00,0.00,2
0.07,-0.26,-1.19,3.23,0.24,0.00,0.00,0.00,0.00,0.00,2
0.06,-0.26,-1.20,2.62,0.73,0.55,0.00,0.00,0.00,0.00,2
0.06,-0.26,-1.20,2.14,-1.46,2.75,0.00,0.00,0.00,0.00,2
0.06,-0.26,-1.21,0.67,1.16,1.77,0.00,0.00,0.00,0.00,2
0.04,-0.27,-1.19,2.81,2.08,-0.67,0.00,0.00,0.00,0.00,2
0.11,-0.26,-1.17,1.10,-1.16,6.53,0.00,0.00,0.00,0.00,2
0.05,-0.26,-1.20,2.56,0.55,1.53,0.00,0.00,0.00,0.00,2
0.04,-0.26,-1.20,2.44,0.18,-0.49,0.00,0.00,0.00,0.00,2
0.01,-0.26,-1.24,0.67,-1.59,-1.53,0.00,0.00,0.00,0.00,2
0.05,-0.28,-1.23,-0.73,1.77,12.39,0.00,0.00,0.00,0.00,2
0.05,-0.27,-1.20,2.44,2.20,-2.32,0.00,0.00,0.00,0.00,2
0.04,-0.28,-1.20,1.71,0.12,0.61,0.00,0.00,0.00,0.00,2
0.06,-0.26,-1.22,4.88,-1.22,1.22,0.00,0.00,0.00,0.00,2
0.06,-0.26,-1.18,11.72,-4.70,-11.90,0.00,0.00,0.00,0.00,2
0.10,-0.27,-1.20,4.09,0.31,1.59,0.00,0.00,0.00,0.00,2
0.05,-0.27,-1.21,3.05,2.50,-1.22,0.00,0.00,0.00,0.00,2
0.04,-0.27,-1.20,0.85,1.28,0.92,0.00,0.00,0.00,0.00,2
0.05,-0.27,-1.20,2.20,-0.85,2.14,0.00,0.00,0.00,0.00,2
0.05,-0.27,-1.20,3.97,0.85,-3.72,0.00,0.00,0.00,0.00,2
0.08,-0.26,-1.19,1.28,0.00,-0.43,0.00,0.00,0.00,0.00,2
0.05,-0.27,-1.20,1.71,-1.83,-4.70,0.00,0.00,0.00,0.00,2
0.05,-0.28,-1.19,2.62,0.85,0.43,0.00,0.00,0.00,0.00,2
0.06,-0.27,-1.20,-0.73,4.39,-1.46,0.00,0.00,0.00,0.00,2
0.07,-0.27,-1.21,2.93,2.32,-1.77,0.00,0.00,0.00,0.00,2
0.05,-0.27,-1.19,2.26,-3.17,0.12,0.00,0.00,0.00,0.00,2
0.08,-0.27,-1.21,0.00,2.08,0.92,0.00,0.00,0.00,0.00,2
0.05,-0.27,-1.21,-0.49,1.77,0.85,0.00,0.00,0.00,0.00,2
0.05,-0.29,-1.21,8.06,-4.94,7.93,0.00,0.00,0.00,0.00,2
0.05,-0.28,-1.22,-0.18,4.52,0.24,0.00,0.00,0.00,0.00,2
0.05,-0.27,-1.21,4.70,-4.15,-1.10,0.00,0.00,0.00,0.00,2
0.06,-0.26,-1.21,2.14,1.04,2.01,0.00,0.00,0.00,0.00,2
0.08,-0.26,-1.21,4.94,-2.93,-6.90,0.00,0.00,0.00,0.00,2
0.08,-0.27,-1.20,5.13,0.98,-6.47,0.00,0.00,0.00,0.00,2
0.04,-0.27,-1.19,3.54,1.59,-0.37,0.00,0.00,0.00,0.00,2
0.07,-0.27,-1.21,2.26,2.56,1.10,0.00,0.00,0.00,0.00,2
0.06,-0.27,-1.20,2.08,0.92,2.62,0.00,0.00,0.00,0.00,2
0.06,-0.27,-1.20,2.87,0.12,-0.24,0.00,0.00,0.00,0.00,2
0.04,-0.27,-1.20,2.50,-4.70,5.07,0.00,0.00,0.00,0.00,2
0.05,-0.27,-1.20,3.66,-0.31,-2.01,0.00,0.00,0.00,0.00,2
0.06,-0.28,-1.19,4.46,3.30,-3.23,0.00,0.00,0.00,0.00,2
0.05,-0.27,-1.21,0.73,-0.92,2.38,0.00,0.00,0.00,0.00,2
0.01,-0.28,-1.17,4.88,-10.38,1.65,0.00,0.00,0.00,0.00,2
0.06,-0.27,-1.20,3.72,0.73,-5.49,0.00,0.00,0.00,0.00,2
0.06,-0.27,-1.19,4.03,-1.40,-4.82,0.00,0.00,0.00,0.00,2
0.05,-0.27,-1.20,2.93,-1.65,-1.22,0.00,0.00,0.00,0.00,2
0.07,-0.26,-1.22,0.06,11.47,-3.42,0.00,0.00,0.00,0.00,2
0.06,-0.27,-1.20,3.60,0.79,-1.89,0.00,0.00,0.00,0.00,2
0.06,-0.27,-1.20,3.66,1.89,0.37,0.00,0.00,0.00,0.00,2
0.06,-0.27,-1.20,5.19,0.79,-6.41,0.00,0.00,0.00,0.00,2
0.04,-0.27,-1.20,5.98,0.43,-7.51,0.00,0.00,0.00,0.00,2
0.04,-0.27,-1.19,3.60,-0.43,-0.43,0.00,0.00,0.00,0.00,2
0.06,-0.27,-1.20,3.54,-0.18,-1.40,0.00,0.00,0.00,0.00,2
0.06,-0.27,-1.20,1.65,-2.14,0.24,0.00,0.00,0.00,0.00,2
0.06,-0.27,-1.22,3.97,-1.28,0.55,0.00,0.00,0.00,0.00,2
0.06,-0.27,-1.21,2.32,0.73,-0.55,0.00,0.00,0.00,0.00,2
0.05,-0.27,-1.18,2.08,-2.81,-0.98,0.00,0.00,0.00,0.00,2
0.06,-0.26,-1.18,2.26,1.34,0.55,0.00,0.00,0.00,0.00,2
0.06,-0.27,-1.20,5.49,-2.56,-4.27,0.00,0.00,0.00,0.00,2
0.06,-0.26,-1.22,2.20,-0.24,-0.31,0.00,0.00,0.00,0.00,2
0.07,-0.26,-1.20,1.65,4.09,-1.46,0.00,0.00,0.00,0.00,2
0.05,-0.26,-1.21,1.59,0.37,1.22,0.00,0.00,0.00,0.00,2
0.04,-0.27,-1.20,2.20,1.04,4.64,0.00,0.00,0.00,0.00,2
0.06,-0.28,-1.21,1.53,3.42,0.06,0.00,0.00,0.00,0.00,2
0.07,-0.26,-1.21,4.21,0.73,-0.06,0.00,0.00,0.00,0.00,2
0.06,-0.27,-1.19,3.91,-1.28,-0.92,0.00,0.00,0.00,0.00,2
0.06,-0.27,-1.20,2.81,-0.37,0.79,0.00,0.00,0.00,0.00,2
0.06,-0.26,-1.20,2.99,0.18,-0.79,0.00,0.00,0.00,0.00,2
0.07,-0.27,-1.19,1.34,2.14,1.28,0.00,0.00,0.00,0.00,2
0.06,-0.27,-1.20,2.87,0.31,0.85,0.00,0.00,0.00,0.00,2
0.06,-0.27,-1.20,3.66,0.00,-0.61,0.00,0.00,0.00,0.00,2
0.06,-0.25,-1.21,1.65,2.26,-0.06,0.00,0.00,0.00,0.00,2
0.06,-0.26,-1.19,4.09,-0.79,-1.04,0.00,0.00,0.00,0.00,2
0.06,-0.26,-1.20,2.75,0.18,-0.73,0.00,0.00,0.00,0.00,2
0.06,-0.26,-1.20,2.93,-0.12,-0.12,0.00,0.00,0.00,0.00,2
0.06,-0.26,-1.20,3.72,-0.31,-1.59,0.00,0.00,0.00,0.00,2
0.06,-0.26,-1.20,2.69,0.12,0.12,0.00,0.00,0.00,0.00,2
0.06,-0.26,-1.20,2.50,0.06,1.34,0.00,0.00,0.00,0.00,2
0.06,-0.27,-1.20,2.26,0.61,2.44,0.00,0.00,0.00,0.00,2
0.05,-0.26,-1.19,2.56,-0.24,-0.92,0.00,0.00,0.00,0.00,2
0.05,-0.27,-1.19,2.75,-1.40,1.46,0.00,0.00,0.00,0.00,2
0.05,-0.26,-1.20,0.31,-1.71,0.06,0.00,0.00,0.00,0.00,2
0.05,-0.27,-1.20,3.54,-1.34,-1.28,0.00,0.00,0.00,0.00,2
0.06,-0.26,-1.21,2.26,0.43,0.43,0.00,0.00,0.00,0.00,2
0.06,-0.26,-1.21,2.81,-0.24,-0.37,0.00,0.00,0.00,0.00,2
0.06,-0.27,-1.20,3.11,0.31,-0.18,0.00,0.00,0.00,0.00,2
0.06,-0.26,-1.20,2.44,0.31,0.18,0.00,0.00,0.00,0.00,2
0.06,-0.26,-1.20,2.56,0.24,-0.06,0.00,0.00,0.00,0.00,2
0.06,-0.26,-1.20,2.93,-0.43,-0.73,0.00,0.00,0.00,0.00,2
0.06,-0.26,-1.21,2.69,-0.06,-0.37,0.00,0.00,0.00,0.00,2
0.06,-0.26,-1.20,2.93,0.18,-0.31,0.00,0.00,0.00,0.00,2
0.06,-0.26,-1.20,3.30,0.12,-0.18,0.00,0.00,0.00,0.00,2
0.06,-0.26,-1.21,3.05,0.00,-0.37,0.00,0.00,0.00,0.00,2
0.05,-0.26,-1.20,2.62,-0.06,0.49,0.00,0.00,0.00,0.00,2
0.06,-0.26,-1.20,2.87,0.00,0.06,0.00,0.00,0.00,0.00,2
0.06,-0.26,-1.20,2.62,0.18,-0.18,0.00,0.00,0.00,0.00,2
0.06,-0.26,-1.20,2.50,0.24,-0.55,0.00,0.00,0.00,0.00,2
0.06,-0.26,-1.20,2.50,-0.43,0.49,0.00,0.00,0.00,0.00,2
0.05,-0.26,-1.20,2.99,0.00,-0.61,0.00,0.00,0.00,0.00,2
0.06,-0.26,-1.20,2.44,0.43,0.31,0.00,0.00,0.00,0.00,2
0.06,-0.27,-1.20,1.95,0.12,1.71,0.00,0.00,0.00,0.00,2
0.06,-0.26,-1.21,2.50,0.12,0.37,0.00,0.00,0.00,0.00,2
0.06,-0.26,-1.21,3.42,-0.12,-0.43,0.00,0.00,0.00,0.00,2
0.05,-0.26,-1.20,2.99,-0.18,-0.06,0.00,0.00,0.00,0.00,2
0.06,-0.26,-1.21,2.56,0.06,-0.43,0.00,0.00,0.00,0.00,2
0.06,-0.26,-1.20,2.99,0.31,-0.37,0.00,0.00,0.00,0.00,2
0.06,-0.26,-1.19,2.87,0.18,-0.31,0.00,0.00,0.00,0.00,2
0.06,-0.26,-1.21,2.81,0.18,-0.06,0.00,0.00,0.00,0.00,2
0.06,-0.26,-1.20,2.87,0.00,0.06,0.00,0.00,0.00,0.00,2
0.06,-0.26,-1.21,2.93,0.24,-0.06,0.00,0.00,0.00,0.00,2
0.05,-0.26,-1.20,3.11,-0.18,-0.06,0.00,0.00,0.00,0.00,2
0.06,-0.26,-1.20,2.99,0.31,-0.79,0.00,0.00,0.00,0.00,2
0.06,-0.26,-1.20,3.30,0.06,-0.55,0.00,0.00,0.00,0.00,2
0.05,-0.26,-1.21,2.87,0.43,-1.22,0.00,0.00,0.00,0.00,2
0.05,-0.26,-1.21,2.81,-0.18,-0.37,0.00,0.00,0.00,0.00,2
0.06,-0.26,-1.20,2.99,0.43,-0.67,0.00,0.00,0.00,0.00,2
0.05,-0.26,-1.20,2.69,0.06,0.12,0.00,0.00,0.00,0.00,2
0.06,-0.26,-1.21,2.87,0.00,-0.12,0.00,0.00,0.00,0.00,2
0.05,-0.26,-1.21,2.75,0.00,-0.18,0.00,0.00,0.00,0.00,2
0.05,-0.26,-1.20,3.36,0.00,-0.98,0.00,0.00,0.00,0.00,2
0.05,-0.26,-1.20,7.02,0.24,-7.93,0.00,0.00,0.00,0.00,2
0.06,-0.26,-1.20,2.20,-0.43,1.28,0.00,0.00,0.00,0.00,2
0.05,-0.26,-1.21,2.87,0.12,0.06,0.00,0.00,0.00,0.00,2
0.06,-0.26,-1.20,2.87,0.24,0.37,0.00,0.00,0.00,0.00,2
0.04,-0.27,-1.21,0.92,-0.61,7.32,0.00,0.00,0.00,0.00,2
0.05,-0.26,-1.20,2.93,0.61,0.55,0.00,0.00,0.00,0.00,2
0.05,-0.26,-1.21,2.50,0.06,-0.24,0.00,0.00,0.00,0.00,2
0.06,-0.26,-1.20,2.99,0.00,-0.06,0.00,0.00,0.00,0.00,2
0.08,-0.26,-1.21,3.05,-0.06,-0.98,0.00,0.00,0.00,0.00,2
0.05,-0.26,-1.20,2.50,0.00,0.55,0.00,0.00,0.00,0.00,2
0.06,-0.26,-1.20,2.93,-0.43,-0.85,0.35,0.00,0.00,0.00,2
0.05,-0.26,-1.21,2.69,-0.06,-0.12,0.86,0.00,0.00,0.00,2
0.05,-0.26,-1.20,2.99,-0.18,0.55,0.92,0.00,0.00,0.00,2
0.06,-0.27,-1.20,2.20,0.00,1.10,0.00,0.00,0.00,0.00,2
0.06,-0.26,-1.20,2.44,1.10,-1.16,0.00,0.00,0.00,0.00,2
0.05,-0.26,-1.20,3.11,-0.12,0.43,0.00,0.00,0.00,0.00,2
0.06,-0.26,-1.20,3.23,-0.12,-0.31,0.57,0.00,0.00,0.00,2
0.06,-0.26,-1.20,2.99,-0.06,0.37,0.98,0.00,0.00,0.00,2
0.05,-0.26,-1.21,3.11,-0.31,-0.85,1.01,0.00,0.00,0.00,2
0.06,-0.26,-1.21,3.17,0.18,0.00,0.00,0.00,0.00,0.00,2
0.06,-0.26,-1.20,3.11,-0.12,-0.67,0.00,0.00,0.00,0.00,2
0.06,-0.26,-1.20,2.62,0.24,0.37,0.00,0.00,0.00,0.00,2
0.06,-0.26,-1.20,2.69,0.31,-0.31,0.00,0.00,0.00,0.00,2
0.06,-0.26,-1.20,2.99,-0.31,-0.49,0.00,0.00,0.00,0.00,2
0.06,-0.27,-1.21,2.99,0.37,-0.37,0.00,0.00,0.00,0.00,2
0.05,-0.26,-1.21,3.11,0.12,-1.04,0.00,0.00,0.00,0.00,2
0.06,-0.26,-1.20,2.75,-0.79,-1.59,0.59,0.00,0.00,0.00,2
0.05,-0.26,-1.20,3.23,-0.06,-0.24,0.83,0.00,0.00,0.00,2
0.06,-0.26,-1.21,2.81,0.31,-0.18,0.56,0.00,0.00,0.00,2
0.06,-0.26,-1.19,3.30,0.79,-1.16,0.00,0.00,0.00,0.00,2
0.06,-0.26,-1.20,2.93,-0.12,-0.49,0.00,0.00,0.00,0.00,2
0.06,-0.26,-1.20,3.05,-0.12,0.00,0.00,0.00,0.00,0.00,2
0.04,-0.27,-1.24,-1.95,3.11,4.27,0.00,0.00,0.00,0.00,2
0.29,0.10,-1.14,47.30,-31.74,9.64,0.00,0.00,0.00,0.00,2
0.47,0.24,-1.04,8.61,-5.86,-4.09,0.00,0.00,0.00,0.00,2
0.45,0.25,-1.09,-5.37,3.78,4.15,0.00,0.00,0.00,0.00,2
0.42,0.20,-1.12,-5.74,-0.61,-0.85,0.00,0.00,0.00,0.00,2
0.43,0.14,-1.14,2.50,0.12,-3.05,0.00,0.00,0.00,0.00,2
0.41,0.15,-1.12,10.50,0.67,4.64,0.00,0.00,0.16,0.00,2
0.33,0.11,-1.25,12.82,-5.25,-0.18,0.00,0.00,0.22,0.00,2
0.39,0.16,-1.13,2.81,-1.10,-0.06,0.00,0.00,0.18,0.00,2
0.40,0.16,-1.14,2.26,0.43,-0.85,0.00,0.00,0.21,0.00,2
0.39,0.15,-1.14,1.34,0.49,-1.22,0.00,0.00,0.17,0.00,2
0.18,0.09,-1.22,-5.07,15.32,1.65,0.00,0.00,0.18,0.00,2
0.14,0.03,-1.26,4.15,2.20,-1.65,0.00,0.00,0.20,0.00,2
0.13,0.04,-1.24,1.40,0.67,0.18,0.00,0.00,0.18,0.00,2
0.13,0.02,-1.22,5.31,-0.55,1.95,0.49,0.00,0.00,0.00,2
0.12,0.03,-1.24,1.65,1.04,-1.34,0.80,0.00,0.00,0.00,2
0.12,0.02,-1.22,3.48,0.67,0.67,0.85,0.00,0.00,0.00,2
0.12,0.02,-1.23,1.59,0.67,3.11,0.00,0.00,0.19,0.00,2
0.12,0.02,-1.23,5.62,-0.18,-0.12,0.00,0.00,0.20,0.00,2
0.12,0.01,-1.23,3.23,-0.31,-0.92,0.00,0.00,0.18,0.00,2
0.12,0.01,-1.23,2.69,0.18,0.12,0.00,0.00,0.22,0.00,2
0.12,-0.00,-1.25,3.54,2.01,1.59,0.00,0.00,0.21,0.00,2
0.11,0.00,-1.24,1.53,1.28,-1.83,0.92,0.00,0.00,0.00,2
0.10,-0.02,-1.22,2.81,0.12,1.95,0.91,0.00,0.00,0.00,2
0.11,-0.01,-1.25,5.31,-1.16,2.44,0.00,0.00,0.19,0.00,2
0.11,0.02,-1.24,10.50,-3.48,-0.55,0.00,0.00,0.20,0.00,2
0.15,0.07,-1.24,9.34,-10.62,3.42,0.00,0.00,0.18,0.00,2
0.19,0.06,-1.21,3.91,0.18,0.55,0.00,0.00,0.18,0.00,2
0.14,0.05,-1.24,1.04,0.92,-1.77,0.00,0.00,0.21,0.00,2
0.13,0.06,-1.24,3.48,-5.86,7.87,0.00,0.00,0.21,0.00,2
0.12,0.10,-1.23,6.47,-4.09,4.03,0.00,0.00,0.17,0.00,2
0.14,0.11,-1.21,9.40,-7.39,7.93,0.00,0.00,0.46,0.00,2
0.20,0.10,-1.24,11.84,19.65,12.27,0.00,0.00,0.13,0.00,2
0.06,0.06,-1.23,-4.82,2.44,-2.69,0.00,0.00,0.90,0.00,2
0.10,0.05,-1.24,14.77,-16.85,11.11,0.00,0.00,0.15,0.00,2
-0.00,0.01,-1.20,1.28,3.36,-3.91,0.00,0.00,0.29,0.00,2
-0.01,-0.13,-1.21,-2.99,6.16,3.48,0.00,0.00,0.16,0.00,2
0.01,-0.13,-1.24,-0.67,3.54,0.43,0.00,0.00,1.55,0.00,2
0.01,-0.14,-1.24,2.26,0.79,-0.61,0.00,0.00,0.20,0.00,2
0.00,-0.13,-1.24,2.26,-0.98,-0.43,0.78,0.00,0.00,0.00,2
0.00,-0.13,-1.22,2.32,-0.85,0.24,0.83,0.00,0.00,0.00,2
-0.00,-0.13,-1.23,4.27,-1.46,-0.73,0.08,0.00,0.00,0.00,2
0.00,-0.13,-1.23,2.87,0.37,-0.12,0.00,0.00,0.28,0.00,2
-0.00,-0.14,-1.24,3.11,0.49,0.06,0.00,0.00,0.12,0.00,2
0.00,-0.13,-1.24,2.75,-1.16,-0.67,0.00,0.00,0.34,0.00,2
-0.00,-0.13,-1.24,2.32,0.49,-0.06,0.00,0.00,0.08,0.00,2
0.00,-0.13,-1.23,2.62,-1.28,0.43,0.00,0.00,0.39,0.00,2
-0.00,-0.13,-1.24,3.66,0.12,-0.12,0.00,0.00,0.06,0.00,2
-0.00,-0.13,-1.24,3.54,-0.92,0.12,0.00,0.00,0.40,0.00,2
-0.00,-0.13,-1.24,2.20,0.92,0.61,0.00,0.00,0.09,0.00,2
0.00,-0.13,-1.23,2.26,-0.18,-0.73,0.00,0.00,0.22,0.00,2
-0.00,-0.13,-1.23,1.95,-0.12,-0.37,0.00,0.00,0.20,0.00,2
0.00,-0.13,-1.24,3.05,0.12,0.00,0.00,0.00,0.19,0.00,2
-0.01,-0.14,-1.23,2.87,-0.18,0.55,0.00,0.00,0.21,0.00,2
-0.00,-0.13,-1.24,2.93,-0.31,0.18,0.00,0.00,0.19,0.00,2
0.00,-0.13,-1.23,3.05,0.00,-0.37,0.00,0.00,0.28,0.00,2
0.00,-0.14,-1.24,3.05,0.31,0.61,0.00,0.00,0.09,0.00,2
0.00,-0.13,-1.23,2.81,1.04,-0.37,0.00,0.00,0.39,0.00,2
-0.00,-0.14,-1.23,2.50,-0.06,0.18,0.00,0.00,0.06,0.00,2
0.00,-0.13,-1.23,2.62,0.24,-0.67,0.00,0.00,0.41,0.00,2
-0.01,-0.14,-1.24,3.60,-0.92,0.37,0.00,0.00,0.05,0.00,2
0.00,-0.14,-1.23,1.89,0.31,-1.59,0.00,0.00,0.51,0.00,2
-0.00,-0.13,-1.25,4.58,-2.56,6.59,0.00,0.00,0.05,0.00,2
-0.01,-0.13,-1.22,13.85,1.65,1.40,0.00,0.00,0.18,0.00,2
0.05,0.03,-1.28,6.84,-0.79,2.01,0.00,0.00,0.22,0.00,2
0.02,0.13,-1.22,8.00,-3.36,0.31,0.00,0.00,0.27,0.00,2
0.06,0.15,-1.25,8.79,-5.98,-0.61,0.00,0.00,0.26,0.00,2
0.06,0.11,-1.24,5.98,0.24,0.73,0.00,0.00,0.15,0.00,2
0.04,0.10,-1.25,-1.71,-0.18,0.18,0.00,0.00,0.22,0.00,2
0.06,0.09,-1.23,1.95,0.85,-0.43,0.00,0.00,0.18,0.00,2
0.05,0.09,-1.23,5.43,0.37,-0.18,0.00,0.00,0.20,0.00,2
0.03,0.07,-1.24,-4.09,4.94,4.46,0.07,0.00,0.00,0.00,2
0.04,0.06,-1.25,2.38,0.12,-0.18,1.10,0.00,1.40,0.00,2
0.04,0.06,-1.24,3.11,-0.06,0.00,0.00,0.00,0.00,0.00,2
0.04,0.08,-1.24,2.75,0.00,-0.06,1.18,0.00,1.29,0.00,2
0.04,0.08,-1.24,2.87,-0.18,-0.12,0.13,0.00,0.00,0.00,2
0.04,0.07,-1.24,3.72,-0.61,0.06,0.26,0.00,0.00,0.00,2
0.04,0.09,-1.24,-1.83,-0.67,0.31,0.19,0.00,0.00,0.00,2
0.05,0.08,-1.24,1.95,0.24,-0.06,0.17,0.00,0.00,0.00,2
0.04,0.10,-1.25,-2.50,0.61,2.99,0.00,0.00,0.20,0.00,2
0.04,0.05,-1.27,10.38,-0.67,0.37,0.00,0.00,0.12,0.00,2
0.04,0.09,-1.20,4.58,-0.18,0.98,0.00,0.00,4.53,0.00,2
0.04,-0.02,-1.20,-8.79,-6.29,-1.65,0.00,0.00,0.21,0.00,2
0.03,0.07,-1.24,8.97,-2.32,-4.03,0.00,0.00,0.19,0.00,2
0.03,0.10,-1.26,-4.15,0.24,-0.61,0.00,0.00,0.19,0.00,2
0.06,0.20,-1.26,-3.60,5.55,-1.40,0.00,0.00,0.15,0.00,2
0.05,0.03,-1.36,8.67,1.10,-2.56,0.00,0.00,2.79,0.00,2
0.02,0.14,-1.24,6.90,-0.61,0.61,0.00,0.00,0.17,0.00,2
-0.01,0.06,-1.25,-8.30,4.70,-1.10,0.00,0.00,0.30,0.00,2
-0.03,-0.01,-1.23,-25.39,3.48,-4.46,0.00,0.00,0.15,0.00,2
-0.02,-0.11,-1.23,1.10,4.27,-7.39,0.00,0.00,0.24,0.00,2
-0.05,-0.13,-1.23,3.54,1.53,2.50,0.00,0.00,0.15,0.00,2
0.01,0.05,-1.23,2.44,-1.71,1.34,0.00,0.00,1.08,0.00,2
0.03,0.06,-1.24,0.37,1.59,0.92,0.00,0.00,0.15,0.00,2
-0.02,0.01,-1.24,2.75,-0.85,-0.49,0.00,0.00,0.19,0.00,2
-0.02,-0.00,-1.24,3.30,0.61,-1.95,0.00,0.00,0.18,0.00,2
-0.02,0.00,-1.25,4.27,0.12,0.31,0.00,0.00,0.18,0.00,2
-0.02,-0.00,-1.25,3.11,-0.73,-0.67,0.00,0.00,0.19,0.00,2
-0.01,0.01,-1.25,6.59,-2.44,0.31,0.00,0.00,0.18,0.00,2
-0.02,0.01,-1.25,1.10,0.98,-0.92,0.00,0.00,0.19,0.00,2
-0.04,-0.05,-1.24,-10.62,2.81,-0.79,0.00,0.00,0.18,0.00,2
-0.05,-0.11,-1.24,-0.37,0.00,-0.06,0.00,0.00,0.20,0.00,2
-0.04,-0.13,-1.21,14.40,3.17,2.69,0.00,0.00,0.00,0.00,2
0.04,0.09,-1.25,4.64,-2.20,-0.85,0.00,0.00,0.30,0.00,2
0.06,0.10,-1.19,2.99,0.31,-1.71,0.00,0.00,0.19,0.00,2
0.01,0.07,-1.26,12.08,1.77,-8.42,0.00,0.00,0.18,0.00,2
0.05,0.15,-1.22,-27.10,5.19,-11.54,0.00,0.00,0.48,0.00,2
0.05,0.07,-1.24,-9.64,3.11,6.47,0.00,0.00,0.28,0.00,2
-0.02,-0.06,-1.26,-28.63,8.36,-4.21,0.00,0.00,0.40,0.00,2
0.01,-0.01,-1.26,6.23,3.60,-3.72,0.00,0.00,0.17,0.00,2
0.01,0.05,-1.24,3.97,0.92,-0.55,0.00,0.00,0.19,0.00,2
0.01,0.02,-1.25,3.66,-1.71,2.81,0.00,0.00,0.17,0.00,2
-0.01,0.02,-1.25,2.69,0.12,0.12,0.00,0.00,0.20,0.00,2
0.00,0.07,-1.26,13.61,-5.00,-1.77,0.00,0.00,0.18,0.00,2
0.02,0.06,-1.24,1.28,-0.67,0.67,0.00,0.00,0.18,0.00,2
0.03,0.06,-1.25,1.46,0.18,0.55,0.00,0.00,0.19,0.00,2
0.02,0.03,-1.24,13.61,-5.43,-0.61,0.00,0.00,0.00,0.00,2
-0.03,-0.02,-1.22,28.32,-7.51,-23.25,0.00,0.00,0.00,0.00,2
0.00,-0.01,-1.24,-3.11,10.62,3.72,0.00,0.00,0.00,0.00,2
-0.02,0.01,-1.25,2.01,0.18,-0.12,0.00,0.00,0.00,0.00,2
-0.05,-0.02,-1.24,13.31,-9.46,0.18,0.00,0.00,0.00,0.00,2
-0.01,0.01,-1.24,1.28,0.67,-0.18,0.00,0.00,0.00,0.00,2
-0.00,0.01,-1.26,2.62,-2.81,2.08,0.00,0.00,0.00,0.00,2
-0.01,-0.00,-1.24,2.99,1.34,-1.34,0.00,0.00,0.00,0.00,2
-0.01,0.01,-1.25,2.62,0.06,-0.31,0.00,0.00,0.00,0.00,2
-0.02,0.01,-1.25,3.11,0.43,-0.37,0.00,0.00,0.00,0.00,2
-0.02,0.01,-1.25,2.56,0.67,0.06,0.00,0.00,0.00,0.00,2
-0.02,0.02,-1.24,2.87,-0.37,-0.24,0.00,0.00,0.00,0.00,2
-0.01,0.02,-1.25,2.62,0.00,-0.12,0.00,0.00,0.00,0.00,2
-0.01,0.01,-1.25,2.38,0.55,-0.12,0.00,0.00,0.00,0.00,2
-0.01,0.02,-1.25,2.01,-1.22,-0.24,0.00,0.00,0.00,0.00,2
-0.01,0.02,-1.23,1.95,-0.06,-0.43,0.00,0.00,0.00,0.00,2
-0.02,0.01,-1.24,0.37,0.49,1.28,0.00,0.00,0.00,0.00,2
-0.02,-0.01,-1.27,0.55,0.79,-1.16,0.00,0.00,0.00,0.00,2
-0.03,-0.02,-1.23,20.57,0.43,-2.56,0.00,0.00,0.00,0.00,2
-0.03,-0.01,-1.22,0.92,-2.08,3.66,0.00,0.00,0.00,0.00,2
-0.01,-0.03,-1.26,7.57,-1.40,1.65,0.00,0.00,0.00,0.00,2
-0.03,-0.04,-1.24,17.76,-2.44,-1.71,0.00,0.00,0.00,0.00,2
-0.03,-0.02,-1.24,-26.49,5.43,9.89,0.00,0.00,0.00,0.00,2
-0.03,-0.06,-1.23,1.28,1.40,-4.76,0.00,0.00,0.00,0.00,2
-0.05,-0.06,-1.24,-28.14,2.32,5.37,0.00,0.00,0.00,0.00,2
-0.02,-0.02,-1.24,-6.47,3.17,-4.27,0.00,0.00,0.00,0.00,2
-0.02,0.06,-1.25,16.42,6.35,-2.62,0.00,0.00,0.00,0.00,2
-0.01,0.02,-1.26,3.60,0.12,-0.31,0.00,0.00,0.00,0.00,2
-0.05,0.04,-1.22,31.98,-6.41,-2.01,0.00,0.00,0.00,0.00,2
-0.05,-0.07,-1.22,7.08,-1.22,-3.05,0.00,0.00,0.00,0.00,2
-0.03,-0.09,-1.29,1.95,-1.65,-6.35,0.00,0.00,0.00,0.00,2
-0.04,0.00,-1.26,2.44,-2.32,2.08,0.00,0.00,0.00,0.00,2
-0.00,-0.07,-1.31,6.04,-17.76,-9.70,0.00,0.00,0.00,0.00,2
0.01,0.08,-1.25,-2.26,1.40,-6.65,0.00,0.00,0.00,0.00,2
0.04,0.07,-1.25,0.49,-0.24,-1.16,0.00,0.00,0.00,0.00,2
0.03,0.10,-1.24,3.72,0.12,-0.12,0.00,0.00,0.00,0.00,2
0.03,0.07,-1.27,8.79,-1.40,0.00,0.00,0.00,0.00,0.00,2
0.03,0.10,-1.24,4.33,0.24,1.46,0.00,0.00,0.00,0.00,2
0.04,0.11,-1.27,9.83,1.04,-14.65,0.00,0.00,0.00,0.00,2
0.05,0.14,-1.25,8.48,-4.82,-0.92,0.00,0.00,0.17,0.00,2
0.06,0.14,-1.23,2.08,2.38,0.49,0.00,0.00,0.20,0.00,2
0.07,0.15,-1.26,7.14,0.98,-2.69,0.00,0.00,0.16,0.00,2
0.04,0.22,-1.21,12.82,1.59,-11.47,0.00,0.00,0.19,0.00,2
0.06,0.27,-1.20,1.53,-0.24,2.14,0.00,0.00,0.18,0.00,2
0.04,0.24,-1.23,3.36,-0.61,-0.24,0.00,0.00,0.19,0.00,2
0.03,0.21,-1.22,6.29,0.79,0.31,0.00,0.00,0.18,0.00,2
0.04,0.23,-1.19,-1.71,1.10,-0.31,0.00,0.00,0.19,0.00,2
0.06,0.20,-1.22,-2.62,-1.53,14.53,0.00,0.00,0.18,0.00,2
-0.02,0.02,-1.24,-2.87,5.74,1.04,0.00,0.00,0.34,0.00,2
-0.03,-0.01,-1.23,3.72,-1.59,1.22,0.00,0.00,0.11,0.00,2
-0.04,0.02,-1.26,-1.04,-1.83,2.32,0.00,0.00,0.30,0.00,2
-0.03,0.01,-1.24,6.04,-3.97,3.78,0.00,0.00,0.13,0.00,2
-0.04,-0.00,-1.23,3.36,-1.04,0.18,0.75,0.00,0.00,0.00,2
-0.04,0.00,-1.25,0.85,-0.67,-0.24,0.80,0.00,0.00,0.00,2
-0.04,-0.01,-1.24,2.44,0.49,-0.85,0.76,0.00,0.00,0.00,2
-0.03,0.00,-1.24,0.73,0.24,1.53,0.00,0.00,0.25,0.00,2
-0.03,0.01,-1.26,2.81,0.67,0.92,0.00,0.00,0.14,0.00,2
-0.04,0.01,-1.24,2.14,0.55,0.43,0.00,0.00,0.29,0.00,2
-0.04,-0.01,-1.23,4.03,1.65,-1.04,0.00,0.00,0.10,0.00,2
-0.04,-0.03,-1.25,2.38,-0.85,0.06,0.00,0.00,0.33,0.00,2
-0.05,-0.17,-1.15,-6.23,-0.37,3.23,0.00,0.00,0.00,0.00,2
-0.01,-0.01,-1.25,39.12,-4.39,2.44,0.00,0.00,0.46,0.00,2
0.04,0.12,-1.24,1.71,1.40,-3.60,0.00,0.00,0.17,0.00,2
0.03,0.07,-1.24,7.57,-0.79,-0.31,0.00,0.00,0.20,0.00,2
0.03,0.09,-1.25,6.35,-0.24,0.18,0.00,0.00,0.19,0.00,2
0.03,0.09,-1.23,2.14,0.37,-0.24,0.00,0.00,0.15,0.00,2
0.02,0.09,-1.23,3.66,-0.37,-1.28,0.00,0.00,0.22,0.00,2
0.02,0.11,-1.21,-9.03,0.37,-2.44,0.00,0.00,0.14,0.00,2
0.02,0.08,-1.25,-1.04,0.67,-0.06,0.00,0.00,0.26,0.00,2
0.00,0.05,-1.24,2.56,0.67,0.12,0.00,0.00,0.13,0.00,2
0.01,0.06,-1.24,9.95,-5.80,1.71,0.00,0.00,0.32,0.00,2
0.02,0.09,-1.24,-5.00,0.55,2.75,0.00,0.00,0.10,0.00,2
0.00,0.04,-1.26,2.26,0.73,-1.40,0.00,0.00,0.23,0.00,2
0.03,0.08,-1.24,0.92,1.10,-0.06,0.00,0.00,0.15,0.00,2
0.03,0.07,-1.24,5.00,-0.12,-0.18,0.00,0.00,0.22,0.00,2
0.02,0.08,-1.24,3.11,0.12,0.00,0.00,0.00,0.14,0.00,2
0.01,0.06,-1.25,3.36,0.55,0.43,0.21,0.00,0.00,0.00,2
0.01,0.07,-1.24,3.66,0.12,0.00,0.17,0.00,0.00,0.00,2
-0.00,0.10,-1.25,7.93,-5.55,-0.31,0.22,0.00,0.00,0.00,2
0.00,0.06,-1.25,0.43,-1.04,0.06,0.20,0.00,0.00,0.00,2
-0.00,0.05,-1.25,2.69,0.55,-0.18,0.22,0.00,0.00,0.00,2
-0.02,0.04,-1.23,2.75,-3.30,0.18,0.15,0.00,0.00,0.00,2
0.00,0.05,-1.24,2.50,0.00,-0.49,0.22,0.00,0.00,0.00,2
0.00,0.06,-1.26,-2.93,9.83,-0.06,0.11,0.00,0.00,0.00,2
-0.04,0.02,-1.25,3.91,2.81,0.12,0.23,0.00,0.00,0.00,2
-0.03,0.04,-1.26,4.33,-0.18,0.18,0.16,0.00,0.00,0.00,2
-0.04,0.02,-1.22,4.09,0.67,13.67,0.21,0.00,0.00,0.00,2
-0.03,-0.03,-1.23,4.82,6.84,2.44,0.08,0.00,0.00,0.00,2
-0.03,-0.01,-1.26,3.36,-0.12,1.40,0.35,0.00,0.00,0.00,2
-0.04,-0.04,-1.26,-1.65,-0.18,5.74,0.08,0.00,0.00,0.00,2
-0.05,-0.04,-1.25,6.90,-0.43,1.10,0.34,0.00,0.00,0.00,2
-0.05,-0.07,-1.24,4.39,1.22,1.46,0.11,0.00,0.62,0.00,2
-0.04,-0.05,-1.25,2.32,0.49,-0.12,0.27,0.00,0.75,0.00,2
-0.04,-0.05,-1.24,2.81,0.67,0.31,0.18,0.00,0.83,0.00,2
-0.04,-0.04,-1.25,2.50,-0.49,1.22,0.25,0.00,0.00,0.00,2
-0.04,-0.06,-1.24,2.75,0.31,-0.31,0.19,0.00,0.00,0.00,2
-0.04,-0.05,-1.24,2.87,0.31,-0.37,0.16,0.00,0.84,0.00,2
-0.04,-0.06,-1.25,2.75,-0.31,-0.55,0.22,0.00,0.92,0.00,2
-0.04,-0.07,-1.23,3.30,0.24,0.00,0.16,0.00,0.96,0.00,2
-0.04,-0.06,-1.24,3.48,0.55,0.49,0.28,0.00,0.00,0.00,2
-0.05,-0.07,-1.24,3.60,0.85,0.12,0.10,0.00,0.00,0.00,2
-0.04,-0.06,-1.24,3.54,0.18,-0.43,0.32,0.00,0.00,0.00,2
-0.03,-0.08,-1.25,3.36,2.50,-3.17,0.12,0.00,0.00,0.00,2
-0.04,-0.06,-1.25,2.50,0.49,-0.37,0.25,0.00,0.00,0.00,2
-0.04,-0.06,-1.26,1.28,0.67,-0.61,0.08,0.00,0.00,0.00,2
-0.03,-0.03,-1.23,2.81,-5.13,-0.43,0.36,0.00,0.00,0.00,2
0.03,0.11,-1.24,3.91,-1.28,-0.24,0.06,0.00,0.00,0.00,2
0.03,0.13,-1.22,-10.62,-1.89,2.01,0.37,0.00,0.00,0.00,2
0.03,0.11,-1.23,1.34,0.12,-0.24,0.17,0.00,0.00,0.00,2
0.03,0.08,-1.25,5.62,-0.12,-0.12,0.25,0.00,0.00,0.00,2
0.03,0.10,-1.25,1.28,0.31,-0.18,0.25,0.00,0.00,0.00,2
0.03,0.09,-1.24,-0.49,0.06,-0.18,0.16,0.00,0.00,0.00,2
0.03,0.07,-1.26,-0.24,-0.55,-1.16,0.41,0.00,0.00,0.00,2
-0.06,0.04,-1.45,-103.64,42.30,-47.91,0.11,1.74,0.00,0.00,2
0.04,0.14,-1.23,5.07,0.24,0.12,0.55,0.09,0.30,0.00,2
0.04,0.12,-1.23,-0.61,0.31,-0.49,0.00,0.73,0.00,0.00,2
0.04,0.14,-1.23,3.85,0.31,-0.24,0.79,0.29,0.42,0.00,2
0.05,0.14,-1.24,5.62,0.85,0.55,0.00,0.32,0.00,0.00,2
0.03,0.12,-1.26,4.39,-0.24,0.06,0.68,0.73,0.29,0.00,2
0.09,0.11,-1.21,19.10,-0.61,6.59,0.22,0.00,0.20,0.00,2
0.03,0.09,-1.23,-7.81,-0.49,-0.79,0.21,0.00,0.00,0.00,2
0.01,0.05,-1.24,5.55,0.55,-0.92,0.68,0.00,0.91,0.00,2
0.03,0.04,-1.23,5.07,1.28,2.69,0.11,0.00,0.00,0.00,2
0.01,0.04,-1.25,2.38,0.12,0.49,0.66,0.00,0.44,0.00,2
-0.01,0.04,-1.23,-0.49,-1.95,0.00,0.00,0.00,0.00,0.00,2
0.03,0.07,-1.24,1.10,-4.94,0.49,0.54,0.00,0.25,0.00,2
0.02,0.06,-1.25,1.28,0.67,0.24,0.05,0.00,0.00,0.00,2
0.05,0.08,-1.25,8.18,-4.52,8.18,0.53,0.00,0.00,0.00,2
0.02,0.06,-1.24,5.92,0.98,-1.34,0.09,0.00,0.00,0.00,2
-0.02,0.01,-1.24,0.73,9.46,-0.37,0.32,0.00,0.00,0.00,2
-0.04,-0.03,-1.23,6.59,0.18,0.67,0.14,0.00,0.00,0.00,2
-0.02,-0.04,-1.23,1.53,1.22,0.18,0.28,0.00,0.00,0.00,2
-0.02,-0.04,-1.25,-2.14,5.43,-0.24,0.19,0.00,0.67,0.00,2
-0.04,-0.04,-1.24,4.46,1.34,0.18,0.21,0.00,0.79,0.00,2
-0.04,-0.05,-1.26,1.16,0.31,-0.18,0.21,0.00,0.00,0.00,2
-0.03,-0.05,-1.25,0.61,2.14,1.71,0.11,0.00,0.00,0.00,2
-0.04,-0.06,-1.24,1.40,-0.79,0.06,0.29,0.00,0.00,0.00,2
-0.05,-0.07,-1.24,4.94,0.12,0.00,0.08,0.00,0.00,0.00,2
-0.04,-0.08,-1.25,2.08,0.67,0.12,0.33,0.00,0.00,0.00,2
-0.04,-0.06,-1.25,2.81,0.00,0.49,0.08,0.00,0.00,0.00,2
-0.04,-0.06,-1.21,-1.22,-2.08,-1.95,0.33,0.00,0.00,0.00,2
-0.05,-0.10,-1.26,-9.77,3.36,-1.71,0.08,0.00,0.00,0.00,2
-0.04,-0.11,-1.25,-3.97,-2.81,-1.83,0.41,0.00,0.00,0.00,2
-0.06,-0.11,-1.23,2.75,-0.55,0.12,0.08,0.00,0.00,0.00,2
-0.05,-0.11,-1.25,6.59,-0.37,-1.16,0.37,0.00,0.00,0.00,2
-0.05,-0.11,-1.24,4.58,-1.04,-0.49,0.12,0.00,0.00,0.00,2
-0.05,-0.11,-1.23,0.85,-2.14,-2.14,0.31,0.00,0.00,0.00,2
-0.05,-0.10,-1.23,4.03,3.48,1.40,0.18,0.00,0.00,0.00,2
-0.04,-0.12,-1.23,2.56,-0.55,-0.73,0.21,0.00,0.00,0.00,2
-0.05,-0.12,-1.22,2.81,2.14,-1.22,0.25,0.00,0.00,0.00,2
-0.03,-0.15,-1.25,3.60,3.85,3.30,0.10,0.00,0.00,0.00,2
-0.06,-0.15,-1.23,-4.82,-1.83,2.69,0.29,0.00,0.00,0.00,2
-0.03,-0.18,-1.24,-1.10,-0.12,-0.43,0.09,0.00,0.00,0.00,2
-0.03,-0.18,-1.23,2.32,-0.31,-0.12,0.31,0.00,0.00,0.00,2
-0.04,-0.19,-1.23,3.42,0.24,-0.18,0.08,0.00,0.00,0.00,2
-0.04,-0.19,-1.23,3.11,0.49,0.12,0.31,0.00,0.00,0.00,2
-0.04,-0.18,-1.23,3.11,0.37,-0.06,0.09,0.00,0.00,0.00,2
-0.04,-0.18,-1.23,3.23,-0.37,-0.06,0.30,0.00,0.00,0.00,2
-0.04,-0.18,-1.23,2.93,-0.55,-0.31,0.12,0.00,0.00,0.00,2
-0.04,-0.18,-1.23,2.20,-0.37,-0.73,0.26,0.00,0.00,0.00,2
-0.04,-0.18,-1.23,2.81,-0.06,-0.06,0.16,0.00,0.00,0.00,2
-0.04,-0.19,-1.23,2.32,1.65,0.98,0.22,0.00,0.00,0.00,2
-0.04,-0.19,-1.22,2.99,0.55,0.24,0.19,0.00,0.00,0.00,2
-0.04,-0.19,-1.23,2.75,0.24,-0.06,0.18,0.00,0.00,0.00,2
-0.03,-0.19,-1.23,2.75,0.24,-0.31,0.23,0.00,0.00,0.00,2
-0.04,-0.19,-1.23,3.66,0.43,0.73,0.11,0.00,0.00,0.00,2
-0.04,-0.19,-1.23,4.15,0.24,-0.12,0.31,0.00,0.00,0.00,2
-0.04,-0.21,-1.23,3.78,-2.75,0.31,0.15,0.00,0.00,0.00,2
-0.05,-0.18,-1.23,0.67,4.33,-5.74,0.21,0.00,0.00,0.00,2
-0.04,-0.18,-1.24,2.56,2.69,-7.08,0.16,0.00,0.00,0.00,2
-0.03,-0.20,-1.23,1.34,4.52,3.17,0.20,0.00,0.00,0.00,2
-0.04,-0.19,-1.22,0.98,1.40,-3.66,0.11,0.00,0.00,0.00,2
-0.03,-0.17,-1.26,4.27,-7.81,-3.97,0.27,0.00,0.00,0.00,2
-0.03,-0.16,-1.22,-9.83,-8.42,15.63,0.15,0.00,0.00,0.00,2
-0.06,-0.15,-1.22,11.90,12.45,4.27,0.18,0.00,0.00,0.00,2
-0.06,-0.19,-1.22,3.91,7.75,-9.03,0.23,0.00,0.00,0.00,2
-0.01,-0.19,-1.22,-1.59,8.36,-0.37,0.14,0.00,0.00,0.00,2
-0.04,-0.21,-1.20,1.77,-0.67,-1.77,0.28,0.00,0.00,0.00,2
-0.02,-0.20,-1.21,-5.68,-1.53,-1.46,0.09,0.00,0.00,0.00,2
-0.04,-0.20,-1.21,3.42,-3.05,-0.37,0.34,0.00,0.00,0.00,2
-0.02,-0.23,-1.23,-3.72,-2.01,-2.32,0.10,0.00,0.00,0.00,2
-0.02,-0.21,-1.25,12.33,-2.14,-2.69,0.34,0.00,0.00,0.00,2
-0.03,-0.18,-1.21,5.00,-7.69,2.56,0.09,0.00,0.00,0.00,2
-0.04,-0.19,-1.22,-1.71,-0.06,-1.89,0.32,0.00,0.00,0.00,2
-0.04,-0.18,-1.22,1.34,4.94,-7.81,0.18,0.00,0.00,0.00,2
-0.04,-0.19,-1.21,-0.49,3.48,2.44,0.22,0.00,0.00,0.00,2
-0.02,-0.20,-1.22,-4.33,1.46,1.28,0.42,0.00,0.00,173015040.00,2
-0.03,-0.20,-1.22,3.72,3.42,2.01,0.19,0.00,0.00,0.00,2
-0.02,-0.20,-1.20,1.46,4.09,1.34,0.48,0.00,0.00,173015040.00,2
-0.03,-0.21,-1.23,-0.31,-2.01,-1.28,0.11,0.00,0.00,0.00,2
-0.02,-0.23,-1.22,2.44,-2.69,-2.56,0.41,0.00,0.00,173015040.00,2
-0.04,-0.19,-1.20,-0.85,-0.85,5.19,0.10,0.00,0.00,0.00,2
-0.04,-0.25,-1.23,0.37,6.41,-3.05,0.22,0.00,0.00,0.00,2
-0.04,-0.22,-1.25,-0.18,-1.59,-0.06,0.17,0.00,0.00,0.00,2
-0.03,-0.21,-1.24,14.34,1.95,-5.98,0.33,0.00,0.00,0.00,2
-0.03,-0.18,-1.22,2.08,-2.08,-7.02,0.09,0.00,0.00,0.00,2
-0.06,-0.18,-1.22,-2.75,-1.40,-4.09,0.30,0.00,0.00,0.00,2
-0.04,-0.26,-1.23,-2.32,10.31,-3.23,0.18,0.00,0.00,0.00,2
-0.05,-0.22,-1.19,-6.23,-5.55,-21.06,0.19,0.00,0.00,0.00,2
-0.07,-0.21,-1.24,8.91,0.37,-0.92,0.25,0.00,0.00,0.00,2
-0.03,-0.20,-1.21,6.47,5.68,0.61,0.13,0.00,0.00,0.00,2
-0.02,-0.22,-1.22,4.76,-0.37,6.59,0.28,0.00,0.00,0.00,2
-0.02,-0.20,-1.21,4.46,-0.92,-0.67,0.10,0.00,0.00,0.00,2
-0.03,-0.20,-1.21,5.37,-0.49,-2.32,0.30,0.00,0.00,0.00,2
-0.03,-0.20,-1.21,1.65,-0.12,-0.43,0.16,0.00,0.00,0.00,2
-0.03,-0.21,-1.22,1.34,0.55,0.18,0.20,0.00,0.88,0.00,2
-0.03,-0.22,-1.22,1.95,0.00,0.00,0.13,0.00,0.00,0.00,2
-0.04,-0.21,-1.21,1.71,-0.98,0.73,0.29,0.00,0.00,0.00,2
-0.04,-0.20,-1.22,0.85,-1.16,0.67,0.18,0.00,0.00,0.00,2
-0.04,-0.21,-1.22,2.20,1.04,0.31,0.15,0.00,0.00,0.00,2
-0.03,-0.21,-1.22,3.11,0.85,-0.06,0.23,0.00,0.00,0.00,2
-0.04,-0.21,-1.22,4.88,-1.65,1.89,0.17,0.00,0.00,0.00,2
-0.04,-0.21,-1.22,3.91,0.00,-0.31,0.26,0.00,0.00,0.00,2
-0.04,-0.21,-1.23,5.80,3.54,1.83,0.12,0.00,0.00,0.00,2
-0.02,-0.25,-1.21,16.42,1.77,3.11,0.32,0.00,0.00,0.00,2
0.01,-0.17,-1.16,11.17,3.60,4.33,0.17,0.00,0.00,0.00,2
-0.14,-0.20,-1.15,-30.88,-39.55,-38.82,0.20,0.00,0.00,0.00,2
-0.07,-0.21,-1.23,-10.99,-8.36,-5.86,0.19,0.00,0.00,0.00,2
-0.11,-0.17,-1.21,-15.69,-2.87,7.08,0.26,0.00,0.00,0.00,2
-0.03,-0.23,-1.20,5.49,13.43,-0.12,0.42,0.00,0.00,173015040.00,2
-0.02,-0.19,-1.22,0.06,3.48,2.81,0.17,0.00,0.00,0.00,2
-0.04,-0.18,-1.22,-3.54,2.08,-9.58,0.25,0.00,0.00,0.00,2
-0.03,-0.22,-1.23,-9.64,-5.86,3.66,0.11,0.00,0.00,0.00,2
-0.04,-0.20,-1.23,-0.73,0.24,0.06,0.29,0.00,0.00,0.00,2
-0.02,-0.19,-1.26,1.59,-0.73,4.52,0.09,0.00,0.00,0.00,2
-0.04,-0.22,-1.23,9.52,-0.79,2.99,0.31,0.00,0.00,0.00,2
-0.05,-0.20,-1.20,2.93,-1.10,-4.52,0.08,0.00,0.00,0.00,2
-0.04,-0.21,-1.22,2.20,-0.06,0.85,0.31,0.00,0.00,0.00,2
-0.03,-0.21,-1.21,3.78,1.53,-1.77,0.09,0.00,0.00,0.00,2
-0.03,-0.22,-1.23,-1.59,2.14,-2.01,0.28,0.00,0.00,0.00,2
-0.03,-0.23,-1.21,11.05,1.89,3.11,0.10,0.00,0.00,0.00,2
-0.05,-0.22,-1.22,8.85,4.46,-2.62,0.31,0.00,0.00,0.00,2
-0.02,-0.19,-1.23,-0.79,3.36,0.43,0.09,0.00,0.00,0.00,2
-0.02,-0.19,-1.21,3.54,5.86,-4.27,0.31,0.00,0.00,0.00,2
-0.05,-0.18,-1.26,0.18,-3.91,-2.26,0.11,0.00,0.00,0.00,2
-0.05,-0.23,-1.22,3.91,-3.78,2.20,0.28,0.00,0.00,0.00,2
-0.05,-0.21,-1.22,3.72,-0.43,-0.49,0.15,0.00,0.00,0.00,2
-0.04,-0.22,-1.24,5.98,2.44,2.08,0.22,0.00,0.00,0.00,2
-0.02,-0.23,-1.23,-3.72,3.60,2.50,0.24,0.00,0.00,0.00,2
-0.03,-0.20,-1.23,2.14,-1.04,-0.06,0.15,0.00,0.00,0.00,2
-0.03,-0.20,-1.22,2.20,-0.98,-0.31,0.29,0.00,0.00,0.00,2
-0.03,-0.20,-1.23,3.36,0.18,0.00,0.12,0.00,0.00,0.00,2
-0.04,-0.20,-1.22,6.16,1.04,0.06,0.34,0.00,0.00,0.00,2
-0.03,-0.21,-1.22,3.97,0.12,0.12,0.10,0.00,0.00,0.00,2
-0.04,-0.21,-1.23,-0.79,0.00,0.49,0.35,0.00,0.00,0.00,2
-0.04,-0.21,-1.23,1.40,-2.26,-0.24,0.11,0.00,0.00,0.00,2
-0.04,-0.21,-1.23,2.44,0.67,-0.12,0.34,0.00,0.00,0.00,2
-0.03,-0.21,-1.22,2.01,0.43,0.98,0.13,0.00,0.00,0.00,2
-0.03,-0.20,-1.22,2.44,-0.43,-0.55,0.31,0.00,0.00,0.00,2
-0.02,-0.20,-1.21,1.53,1.10,-0.98,0.16,0.00,0.00,0.00,2
-0.00,-0.21,-1.19,8.36,9.77,7.93,0.26,0.00,0.00,0.00,2
-0.01,-0.19,-1.22,-1.16,-3.72,-1.10,0.22,0.00,0.00,0.00,2
-0.01,-0.20,-1.23,-1.16,-3.42,-2.99,0.16,0.00,0.00,0.00,2
-0.03,-0.21,-1.23,1.46,-3.36,-2.75,0.27,0.00,0.00,0.00,2
-0.02,-0.21,-1.21,6.65,-4.21,-3.05,0.11,0.00,0.00,0.00,2
-0.03,-0.19,-1.21,-0.31,-0.43,0.12,0.31,0.00,0.00,0.00,2
-0.03,-0.22,-1.25,2.26,-4.82,-3.05,0.09,0.00,0.00,0.00,2
-0.05,-0.22,-1.23,6.23,-3.42,-1.34,0.32,0.00,0.00,0.00,2
-0.04,-0.19,-1.22,6.65,2.26,1.83,0.18,0.00,0.00,0.00,2
-0.03,-0.20,-1.21,6.53,1.10,0.73,0.18,0.00,0.00,0.00,2
-0.04,-0.20,-1.22,-1.04,-1.77,0.98,0.18,0.00,0.00,0.00,2
-0.03,-0.21,-1.22,0.00,3.11,-2.44,0.18,0.00,0.00,0.00,2
-0.06,-0.20,-1.21,1.95,2.44,0.12,0.19,0.00,0.00,0.00,2
-0.04,-0.20,-1.22,3.72,1.22,2.38,0.10,0.00,0.00,0.00,2
-0.03,-0.19,-1.21,3.72,3.17,0.37,0.31,0.00,0.00,0.00,2
-0.03,-0.19,-1.22,1.04,-4.15,5.68,0.08,0.00,0.00,0.00,2
-0.04,-0.20,-1.22,4.58,1.71,1.71,0.31,0.00,0.00,0.00,2
-0.02,-0.17,-1.20,-5.37,-5.25,5.92,0.10,0.00,0.00,0.00,2
-0.02,-0.21,-1.23,4.27,-1.40,2.87,0.26,0.00,0.00,0.00,2
-0.04,-0.20,-1.21,2.93,3.23,-0.73,0.17,0.00,0.00,0.00,2
-0.04,-0.22,-1.21,0.49,-4.82,4.33,0.20,0.00,0.00,0.00,2
-0.06,-0.18,-1.23,2.69,-0.73,-3.72,0.23,0.00,0.00,0.00,2
-0.07,-0.17,-1.21,-8.24,6.41,4.15,0.13,0.00,0.00,0.00,2
-0.05,-0.23,-1.21,8.36,4.88,2.20,0.29,0.00,0.00,0.00,2
-0.04,-0.20,-1.20,-1.22,-4.58,4.76,0.09,0.00,0.00,0.00,2
-0.06,-0.22,-1.23,0.31,0.12,-1.46,0.32,0.00,0.00,0.00,2
-0.05,-0.20,-1.23,1.04,-0.06,-0.43,0.09,0.00,0.00,0.00,2
-0.05,-0.20,-1.22,3.97,0.55,-0.31,0.32,0.00,0.00,0.00,2
-0.03,-0.20,-1.21,2.69,-0.31,0.06,0.10,0.00,0.00,0.00,2
-0.04,-0.21,-1.22,2.08,0.61,-2.56,0.28,0.00,0.00,0.00,2
-0.04,-0.20,-1.22,0.55,-0.18,-0.37,0.18,0.00,0.00,0.00,2
-0.04,-0.20,-1.23,1.04,-0.18,0.61,0.18,0.00,0.00,0.00,2
-0.04,-0.20,-1.22,1.46,0.61,1.04,0.23,0.00,0.00,0.00,2
-0.03,-0.20,-1.24,-0.31,0.98,-1.28,0.13,0.00,0.00,0.00,2
-0.04,-0.18,-1.22,8.54,-5.31,1.89,0.31,0.00,0.00,0.00,2
-0.02,-0.22,-1.22,3.91,-1.04,1.95,0.08,0.00,0.00,0.00,2
-0.01,-0.19,-1.22,4.52,2.50,-3.23,0.32,0.00,0.00,0.00,2
-0.05,-0.20,-1.22,-0.06,-2.81,1.16,0.09,0.00,0.00,0.00,2
-0.03,-0.20,-1.24,1.34,5.00,-0.98,0.30,0.00,0.00,0.00,2
-0.04,-0.17,-1.21,2.69,0.92,10.80,0.12,0.00,0.00,0.00,2
-0.03,-0.19,-1.22,4.03,-0.31,-0.67,0.30,0.00,0.00,0.00,2
-0.01,-0.21,-1.21,-15.81,1.46,0.98,0.16,0.00,0.00,0.00,2
-0.02,-0.19,-1.24,1.22,-5.19,0.67,0.17,0.00,0.00,0.00,2
-0.06,-0.22,-1.24,0.24,-8.06,-2.26,0.19,0.00,0.00,0.00,2
0.01,-0.29,-1.18,8.12,5.31,-3.78,0.17,0.00,0.00,0.00,2
0.01,-0.19,-1.19,4.15,2.32,-4.09,0.19,0.00,0.00,0.00,2
-0.04,-0.21,-1.19,-11.60,4.27,-9.03,0.09,0.00,0.00,0.00,2
-0.05,-0.18,-1.17,-9.16,8.97,5.49,0.35,0.00,0.00,0.00,2
-0.06,-0.17,-1.21,-0.43,1.46,-4.03,0.07,0.00,0.00,0.00,2
-0.04,-0.20,-1.22,10.38,-0.49,-0.37,0.34,0.00,0.00,0.00,2
-0.02,-0.18,-1.20,6.96,0.00,3.36,0.10,0.00,0.00,0.00,2
-0.05,-0.19,-1.21,3.97,2.14,-2.62,0.31,0.00,0.00,0.00,2
-0.07,-0.20,-1.21,9.40,-2.08,-4.09,0.14,0.00,0.00,0.00,2
-0.07,-0.20,-1.21,1.22,-4.70,3.23,0.22,0.00,0.00,0.00,2
-0.04,-0.20,-1.24,-5.92,-3.60,-2.44,0.20,0.00,0.00,0.00,2
-0.08,-0.19,-1.20,9.89,6.04,4.03,0.16,0.00,0.00,0.00,2
-0.02,-0.15,-1.21,-1.65,11.17,2.38,0.26,0.00,0.00,0.00,2
0.03,-0.10,-1.26,-6.04,10.62,-5.00,0.10,0.00,0.00,0.00,2
-0.06,-0.22,-1.23,0.06,-4.94,2.38,0.31,0.00,0.00,0.00,2
-0.07,-0.20,-1.20,12.70,4.52,2.56,0.08,0.00,0.00,0.00,2
-0.04,-0.17,-1.20,4.52,-3.91,3.42,0.33,0.00,0.00,0.00,2
-0.04,-0.19,-1.24,6.84,2.69,-3.17,0.08,0.00,0.00,0.00,2
-0.04,-0.19,-1.22,5.74,-2.93,-1.34,0.32,0.00,0.00,0.00,2
-0.05,-0.20,-1.21,-3.30,-3.78,-1.04,0.10,0.00,0.00,0.00,2
-0.05,-0.20,-1.23,-0.06,-1.83,4.27,0.25,0.00,0.00,0.00,2
-0.06,-0.20,-1.22,6.04,4.76,5.92,0.22,0.00,0.00,0.00,2
-0.05,-0.20,-1.21,9.89,1.40,3.60,0.14,0.00,0.00,0.00,2
-0.04,-0.20,-1.23,0.37,4.58,0.31,0.28,0.00,0.00,0.00,2
-0.04,-0.20,-1.22,12.82,0.61,-4.39,0.09,0.00,0.00,0.00,2
-0.05,-0.22,-1.24,3.78,-6.59,1.53,0.33,0.00,0.00,0.00,2
-0.04,-0.21,-1.23,12.08,-0.61,1.34,0.07,0.00,0.00,0.00,2
-0.06,-0.22,-1.19,1.10,-7.87,-2.08,0.33,0.00,0.00,0.00,2
-0.03,-0.21,-1.24,-3.36,-9.34,2.93,0.09,0.00,0.00,0.00,2
-0.04,-0.21,-1.24,5.74,-4.52,-1.53,0.31,0.00,0.00,0.00,2
-0.06,-0.20,-1.21,8.79,-3.97,1.10,0.13,0.00,0.00,0.00,2
-0.05,-0.20,-1.21,3.66,1.59,0.49,0.23,0.00,0.00,0.00,2
-0.04,-0.20,-1.22,1.83,1.71,-0.67,0.21,0.00,0.00,0.00,2
-0.03,-0.20,-1.22,1.95,1.16,-0.43,0.10,0.00,0.00,0.00,2
-0.04,-0.20,-1.22,2.99,-0.67,-0.61,0.34,0.00,0.00,0.00,2
-0.05,-0.20,-1.23,3.60,-0.98,-0.67,0.07,0.00,0.00,0.00,2
-0.05,-0.19,-1.22,2.32,0.61,0.43,0.36,0.00,0.00,0.00,2
-0.05,-0.20,-1.22,2.69,0.12,1.16,0.09,0.00,0.00,0.00,2
-0.04,-0.20,-1.23,-0.73,-1.28,-0.49,0.31,0.00,0.00,0.00,2
-0.03,-0.20,-1.22,0.31,2.69,-1.46,0.15,0.00,0.00,0.00,2
-0.08,-0.20,-1.20,-6.10,-0.85,-0.79,0.23,0.00,0.00,0.00,2
-0.04,-0.22,-1.24,2.81,3.17,6.10,0.21,0.00,0.00,0.00,2
-0.04,-0.19,-1.22,-0.31,-3.23,7.39,0.15,0.00,0.00,0.00,2
-0.03,-0.19,-1.22,-4.03,-1.95,4.21,0.28,0.00,0.00,0.00,2
-0.04,-0.21,-1.23,-0.73,-1.95,2.14,0.09,0.00,0.00,0.00,2
-0.05,-0.22,-1.23,-3.36,-4.46,-1.89,0.33,0.00,0.00,0.00,2
-0.05,-0.21,-1.23,2.69,1.46,0.43,0.07,0.00,0.00,0.00,2
-0.05,-0.18,-1.21,2.99,1.28,2.32,0.30,0.00,0.00,0.00,2
-0.05,-0.22,-1.23,-3.11,0.37,2.01,0.07,0.00,0.00,0.00,2
-0.04,-0.21,-1.22,4.39,1.46,2.38,0.06,0.00,0.00,0.00,2
-0.04,-0.22,-1.24,3.05,1.89,1.46,0.06,0.00,0.00,0.00,2
-0.04,-0.22,-1.24,0.73,1.46,-0.49,0.10,0.00,0.00,0.00,2
-0.04,-0.22,-1.24,2.75,1.10,-0.61,0.10,0.00,0.00,0.00,2
-0.04,-0.20,-1.23,8.48,-3.60,2.26,0.30,0.00,0.00,0.00,2
-0.04,-0.21,-1.22,5.31,-0.18,0.55,0.15,0.00,0.00,0.00,2
-0.04,-0.20,-1.22,2.50,-0.73,-1.22,0.22,0.00,0.00,0.00,2
-0.04,-0.20,-1.22,1.89,-1.22,-1.10,0.23,0.00,0.00,0.00,2
-0.02,-0.22,-1.22,1.71,-0.98,4.52,0.13,0.00,0.00,0.00,2
-0.04,-0.21,-1.22,2.62,-0.37,0.24,0.32,0.00,0.00,0.00,2
-0.04,-0.21,-1.22,-0.43,1.46,2.99,0.36,0.00,0.00,0.00,2
-0.04,-0.22,-1.23,-0.06,-2.08,-2.50,0.37,0.00,0.00,0.00,2
-0.04,-0.21,-1.23,5.80,0.12,-1.65,0.28,0.00,0.00,0.00,2
-0.04,-0.20,-1.22,2.14,-4.09,-0.79,0.32,0.00,0.00,0.00,2
-0.04,-0.22,-1.22,1.95,0.00,-2.81,0.31,0.00,0.00,0.00,2
-0.03,-0.21,-1.23,2.08,0.24,0.31,0.10,0.00,0.00,0.00,2
-0.05,-0.21,-1.22,5.25,-3.17,-0.55,0.09,0.00,0.00,0.00,2
-0.05,-0.21,-1.22,4.82,-0.31,1.40,0.07,0.00,0.00,0.00,2
-0.05,-0.22,-1.23,3.30,-2.50,-1.34,0.08,0.00,0.00,0.00,2
-0.03,-0.21,-1.24,4.15,5.13,-3.48,0.31,0.00,0.00,0.00,2
-0.04,-0.20,-1.22,-1.16,-3.72,-0.49,0.08,0.00,0.00,0.00,2
-0.05,-0.21,-1.21,6.10,-2.62,-2.56,0.37,0.00,0.00,0.00,2
-0.04,-0.23,-1.24,7.57,-0.31,-0.12,0.06,0.00,0.00,0.00,2
-0.04,-0.20,-1.22,8.79,-0.37,-1.65,0.39,0.00,0.00,0.00,2
-0.04,-0.21,-1.21,0.73,2.62,-4.58,0.09,0.00,0.00,0.00,2
-0.06,-0.19,-1.19,-2.14,-1.16,-9.28,0.06,0.00,0.00,0.00,2
-0.04,-0.21,-1.24,2.75,-1.71,-5.00,0.37,0.00,0.00,0.00,2
-0.04,-0.22,-1.23,2.81,-1.16,-1.46,0.08,0.00,0.00,0.00,2
-0.05,-0.21,-1.20,8.67,-1.40,-4.27,0.10,0.00,0.00,0.00,2
-0.03,-0.20,-1.23,-2.32,-2.87,2.14,0.25,0.00,0.00,0.00,2
-0.03,-0.20,-1.22,2.38,0.24,5.00,0.23,0.00,0.00,0.00,2
-0.04,-0.21,-1.22,-1.53,-5.00,-2.32,0.23,0.00,0.00,0.00,2
-0.02,-0.19,-1.24,2.69,-0.79,4.64,0.12,0.00,0.00,0.00,2
-0.06,-0.22,-1.22,6.16,2.81,0.37,0.33,0.00,0.00,0.00,2
-0.04,-0.21,-1.22,3.72,1.89,0.98,0.07,0.00,0.00,0.00,2
-0.05,-0.21,-1.21,1.83,1.40,-5.13,0.33,0.00,0.00,0.00,2
-0.05,-0.21,-1.22,5.13,-1.89,-0.12,0.24,0.00,0.00,0.00,2
-0.06,-0.21,-1.21,-0.92,-3.17,-1.77,0.40,0.00,0.00,0.00,2
-0.04,-0.20,-1.22,5.43,0.55,-0.98,0.40,0.00,0.00,0.00,2
-0.05,-0.21,-1.23,2.32,0.79,-2.01,0.40,0.00,0.00,0.00,2
-0.05,-0.19,-1.24,1.95,1.71,0.00,0.30,0.00,0.00,0.00,2
-0.04,-0.22,-1.21,5.00,2.20,-1.10,0.34,0.00,0.00,0.00,2
-0.05,-0.21,-1.22,4.64,0.92,-1.04,0.33,0.00,0.00,0.00,2
-0.04,-0.22,-1.22,7.02,1.34,0.24,0.32,0.00,0.00,0.00,2
-0.04,-0.21,-1.21,3.30,0.73,-1.16,0.18,0.00,0.00,0.00,2
-0.04,-0.21,-1.22,3.85,-0.12,-0.61,0.21,0.00,0.00,0.00,2
-0.05,-0.21,-1.21,3.36,0.24,0.37,0.27,0.00,0.00,0.00,2
-0.04,-0.21,-1.22,3.72,0.37,0.55,0.08,0.00,0.00,0.00,2
-0.04,-0.19,-1.23,5.37,2.62,-3.97,0.07,0.00,0.00,0.00,2
-0.06,-0.18,-1.21,9.58,-0.31,0.55,0.37,0.00,0.00,0.00,2
-0.05,-0.18,-1.21,3.42,0.24,0.06,0.08,0.00,0.00,0.00,2
-0.05,-0.19,-1.22,2.69,-1.95,3.17,0.07,0.00,0.00,0.00,2
-0.04,-0.19,-1.22,2.44,0.67,-1.95,0.09,0.00,0.00,0.00,2
-0.05,-0.20,-1.23,-0.49,0.24,-0.24,0.09,0.00,0.00,0.00,2
-0.04,-0.20,-1.23,2.69,0.73,-0.43,0.09,0.00,0.00,0.00,2
-0.04,-0.20,-1.21,4.88,0.67,0.55,0.33,0.00,0.00,0.00,2
-0.04,-0.19,-1.22,2.69,3.42,1.59,0.12,0.00,0.00,0.00,2
-0.04,-0.20,-1.22,2.69,-0.12,-0.61,0.23,0.00,0.00,0.00,2
-0.04,-0.20,-1.24,2.81,0.61,0.24,0.13,0.00,0.00,0.00,2
-0.04,-0.20,-1.23,2.08,0.18,0.00,0.30,0.00,0.00,0.00,2
-0.04,-0.20,-1.23,2.01,-0.67,-0.67,0.09,0.00,0.00,0.00,2
-0.04,-0.20,-1.24,2.01,-0.43,-0.12,0.33,0.00,0.00,0.00,2
-0.04,-0.20,-1.22,1.83,0.31,-0.06,0.09,0.00,0.00,0.00,2
-0.03,-0.19,-1.22,4.94,-1.40,-0.79,0.16,0.00,0.00,0.00,2
-0.04,-0.20,-1.22,1.95,-2.08,-0.79,0.20,0.00,0.77,0.00,2
-0.05,-0.20,-1.22,3.66,-0.73,-1.04,0.16,0.00,0.79,0.00,2
-0.05,-0.19,-1.22,2.62,1.04,-0.31,0.25,0.00,0.00,0.00,2
-0.04,-0.19,-1.22,4.15,0.24,-0.31,0.12,0.00,0.00,0.00,2
-0.04,-0.20,-1.22,3.42,-0.55,-0.24,0.31,0.00,0.00,0.00,2
-0.04,-0.20,-1.23,0.61,-0.61,0.31,0.32,0.00,0.00,0.00,2
-0.04,-0.21,-1.24,3.60,0.24,-0.31,0.32,0.00,0.00,0.00,2
-0.04,-0.21,-1.23,3.54,1.16,0.24,0.30,0.00,0.00,0.00,2
-0.04,-0.20,-1.23,4.33,0.73,0.43,0.30,0.00,0.00,0.00,2
-0.04,-0.20,-1.23,2.99,-0.49,-0.85,0.14,0.00,0.00,0.00,2
-0.05,-0.21,-1.23,3.66,0.85,0.24,0.23,0.00,0.00,0.00,2
-0.04,-0.20,-1.23,2.93,1.16,0.55,0.21,0.00,0.00,0.00,2
-0.04,-0.20,-1.22,4.39,0.49,0.31,0.17,0.00,0.00,0.00,2
-0.05,-0.20,-1.22,3.11,-0.31,-0.24,0.16,0.00,0.00,0.00,2
-0.04,-0.20,-1.22,4.64,-0.37,0.00,0.17,0.00,0.00,0.00,2
-0.04,-0.20,-1.23,2.50,0.37,0.24,0.11,0.00,0.00,0.00,2
-0.04,-0.20,-1.22,0.79,0.73,0.06,0.10,0.00,0.00,0.00,2
-0.05,-0.20,-1.22,1.89,-0.85,-0.49,0.27,0.00,0.00,0.00,2
-0.05,-0.20,-1.22,4.33,-0.06,0.18,0.17,0.00,0.00,0.00,2
-0.04,-0.20,-1.22,2.08,0.37,-0.06,0.14,0.00,0.00,0.00,2
-0.04,-0.19,-1.22,1.40,0.24,-0.24,0.13,0.00,0.00,0.00,2
-0.04,-0.20,-1.22,2.26,-1.59,-0.31,0.12,0.00,0.00,0.00,2
-0.05,-0.20,-1.23,2.81,0.24,-0.18,0.31,0.00,0.00,0.00,2
-0.04,-0.20,-1.23,5.37,0.73,0.00,0.08,0.00,0.00,0.00,2
-0.04,-0.20,-1.22,3.78,0.12,-0.24,0.33,0.00,0.00,0.00,2
-0.04,-0.20,-1.22,3.85,-0.18,0.12,0.13,0.00,0.00,0.00,2
-0.04,-0.19,-1.21,3.66,0.00,-0.37,0.24,0.00,0.00,0.00,2
-0.05,-0.20,-1.21,4.58,-0.43,-0.12,0.18,0.00,0.00,0.00,2
-0.05,-0.20,-1.22,4.15,0.61,0.37,0.16,0.00,0.00,0.00,2
-0.04,-0.20,-1.22,2.87,0.37,0.06,0.20,0.00,0.00,0.00,2
-0.04,-0.20,-1.23,2.81,1.16,-0.98,0.09,0.00,0.00,0.00,2
-0.04,-0.20,-1.22,2.14,0.12,0.12,0.30,0.00,0.00,0.00,2
-0.04,-0.20,-1.22,2.50,-0.85,-1.95,0.16,0.00,0.00,0.00,2
-0.04,-0.20,-1.23,1.34,-0.12,-0.06,0.29,0.00,0.00,0.00,2
-0.04,-0.20,-1.22,1.89,-0.12,0.18,0.16,0.00,0.00,0.00,2
-0.05,-0.19,-1.23,2.01,0.06,-0.55,0.20,0.00,0.00,0.00,2
-0.03,-0.21,-1.23,11.35,13.24,4.39,0.28,0.00,0.00,0.00,2
-0.03,-0.18,-1.25,-0.79,-0.12,-0.73,0.32,0.00,0.00,0.00,2
-0.05,-0.20,-1.22,3.23,1.22,0.79,0.07,0.00,0.00,0.00,2
-0.04,-0.20,-1.21,-1.04,-1.71,-0.06,0.34,0.00,0.00,0.00,2
-0.04,-0.21,-1.21,4.27,0.00,-0.37,0.11,0.00,0.00,0.00,2
-0.04,-0.20,-1.23,2.44,0.67,0.12,0.28,0.00,0.00,0.00,2
-0.04,-0.20,-1.21,1.53,0.00,-0.24,0.12,0.00,0.00,0.00,2
-0.04,-0.20,-1.22,3.48,0.18,0.24,0.30,0.00,0.00,0.00,2
-0.05,-0.20,-1.22,4.46,0.79,0.67,0.08,0.00,0.00,0.00,2
-0.04,-0.20,-1.22,2.93,0.31,0.37,0.20,0.00,0.00,0.00,2
-0.04,-0.20,-1.23,2.26,1.16,0.55,0.21,0.00,0.00,0.00,2
-0.05,-0.20,-1.23,4.21,0.73,0.00,0.29,0.00,0.00,0.00,2
-0.04,-0.20,-1.22,3.36,0.98,0.06,0.32,0.00,0.00,0.00,2
-0.05,-0.20,-1.22,2.75,0.24,-0.18,0.32,0.00,0.00,0.00,2
-0.04,-0.20,-1.23,3.54,0.67,-0.06,0.32,0.00,0.00,0.00,2
-0.04,-0.20,-1.23,2.93,-0.37,-0.18,0.32,0.00,0.00,0.00,2
-0.04,-0.20,-1.22,3.11,0.24,-0.24,0.33,0.00,0.00,0.00,2
-0.04,-0.20,-1.23,2.69,0.31,0.18,0.08,0.00,0.00,0.00,2
-0.04,-0.20,-1.22,2.26,-0.12,0.31,0.32,0.00,0.00,0.00,2
-0.04,-0.20,-1.22,1.53,0.37,0.37,0.14,0.00,0.00,0.00,2
-0.04,-0.20,-1.22,2.26,-0.31,-1.04,0.14,0.00,0.00,0.00,2
-0.04,-0.20,-1.23,2.69,-0.49,-0.43,0.24,0.00,0.00,0.00,2
-0.04,-0.20,-1.22,3.78,0.92,0.24,0.19,0.00,0.00,0.00,2
-0.04,-0.20,-1.23,4.21,0.79,-0.31,0.12,0.00,0.00,0.00,2
-0.04,-0.20,-1.21,4.58,0.31,-0.49,0.08,0.00,0.00,0.00,2
-0.04,-0.20,-1.23,2.20,0.37,0.24,0.08,0.00,0.00,0.00,2
-0.04,-0.20,-1.22,2.50,0.18,-0.31,0.08,0.00,0.00,0.00,2
-0.04,-0.21,-1.23,3.30,0.92,-0.43,0.08,0.00,0.00,0.00,2
-0.04,-0.20,-1.23,3.36,0.79,-0.06,0.09,0.00,0.00,0.00,2
-0.04,-0.20,-1.23,3.85,0.85,-0.12,0.09,0.00,0.00,0.00,2
-0.04,-0.20,-1.23,0.61,0.31,-0.18,0.09,0.00,0.00,0.00,2
-0.05,-0.20,-1.23,3.91,1.10,0.24,0.29,0.00,0.00,0.00,2
-0.04,-0.20,-1.22,4.27,1.28,0.12,0.18,0.00,0.00,0.00,2
-0.04,-0.20,-1.22,2.44,-0.92,-0.06,0.18,0.00,0.00,0.00,2
-0.04,-0.19,-1.22,2.50,-0.18,1.71,0.26,0.00,0.00,0.00,2
-0.05,-0.20,-1.24,1.59,-1.22,0.49,0.11,0.00,0.00,0.00,2
-0.05,-0.20,-1.22,0.92,-1.89,0.98,0.30,0.00,0.00,0.00,2
-0.05,-0.20,-1.22,2.38,0.31,0.61,0.07,0.00,0.00,0.00,2
-0.04,-0.20,-1.22,1.77,-0.85,-0.85,0.33,0.00,0.00,0.00,2
-0.04,-0.20,-1.23,3.66,0.00,-0.18,0.21,0.00,0.00,0.00,2
-0.04,-0.19,-1.22,3.36,0.31,-0.49,0.24,0.00,0.00,0.00,2
-0.05,-0.20,-1.22,2.08,-0.12,-0.06,0.24,0.00,0.00,0.00,2
-0.04,-0.20,-1.22,2.99,0.00,-0.12,0.22,0.00,0.00,0.00,2
-0.05,-0.22,-1.23,2.93,-1.71,2.26,0.26,0.00,0.00,0.00,2
-0.03,-0.15,-1.21,3.60,3.30,7.14,0.11,0.00,0.00,0.00,2
-0.03,-0.19,-1.24,11.90,0.49,2.08,0.34,0.00,0.00,0.00,2
-0.03,-0.19,-1.22,4.76,0.12,-1.16,0.08,0.00,0.00,0.00,2
-0.04,-0.19,-1.22,2.44,-0.55,-0.24,0.32,0.00,0.00,0.00,2
-0.05,-0.20,-1.22,5.80,-0.12,-0.43,0.17,0.00,0.00,0.00,2
-0.04,-0.20,-1.21,3.54,-1.10,-0.37,0.28,0.00,0.00,0.00,2
-0.04,-0.20,-1.22,3.66,-0.06,-0.43,0.30,0.00,0.00,0.00,2
-0.04,-0.19,-1.23,2.44,0.31,0.18,0.18,0.00,0.00,0.00,2
-0.04,-0.20,-1.23,3.05,-0.85,-0.12,0.11,0.00,0.00,0.00,2
-0.04,-0.20,-1.22,2.50,-0.79,-0.67,0.32,0.00,0.00,0.00,2
-0.05,-0.20,-1.22,4.03,0.24,-0.06,0.25,0.00,0.00,0.00,2
-0.05,-0.20,-1.23,3.11,0.18,-0.06,0.19,0.00,0.00,0.00,2
-0.04,-0.20,-1.23,3.17,-0.18,-0.12,0.16,0.00,0.00,0.00,2
-0.05,-0.20,-1.23,2.20,1.16,0.61,0.29,0.00,0.00,0.00,2
-0.03,-0.21,-1.21,0.00,-0.67,-0.12,0.10,0.00,0.00,0.00,2
-0.05,-0.20,-1.22,3.60,0.37,-0.31,0.14,0.00,0.00,0.00,2
-0.05,-0.20,-1.22,2.01,0.67,-0.12,0.15,0.00,0.00,0.00,2
-0.04,-0.20,-1.22,2.50,0.73,0.06,0.19,0.00,0.00,0.00,2
-0.04,-0.20,-1.22,4.03,0.24,0.00,0.19,0.00,0.00,0.00,2
-0.04,-0.20,-1.22,3.97,-0.24,-0.31,0.16,0.00,0.00,0.00,2
-0.04,-0.20,-1.21,0.18,-0.85,-0.24,0.28,0.00,0.00,0.00,2
-0.05,-0.20,-1.22,2.99,0.67,-0.06,0.10,0.00,0.00,0.00,2
-0.04,-0.21,-1.21,0.67,0.49,-0.18,0.32,0.00,0.00,0.00,2
-0.04,-0.21,-1.22,5.43,1.22,-0.61,0.31,0.00,0.00,0.00,2
-0.05,-0.20,-1.22,5.37,1.04,0.00,0.31,0.00,0.00,0.00,2
-0.05,-0.19,-1.22,4.82,0.92,0.49,0.32,0.00,0.00,0.00,2
-0.04,-0.20,-1.22,3.30,1.89,0.24,0.29,0.00,0.00,0.00,2
-0.04,-0.20,-1.22,4.09,0.31,-0.18,0.18,0.00,0.00,0.00,2
-0.04,-0.20,-1.23,2.32,0.61,0.37,0.19,0.00,0.00,0.00,2
-0.04,-0.20,-1.23,3.42,0.67,0.31,0.26,0.00,0.00,0.00,2
-0.04,-0.20,-1.23,4.46,0.06,-0.49,0.27,0.00,0.00,0.00,2
-0.05,-0.20,-1.22,2.99,0.31,-0.55,0.32,0.00,0.00,0.00,2
-0.05,-0.20,-1.23,3.36,-0.24,-0.43,0.32,0.00,0.00,0.00,2
-0.05,-0.21,-1.21,3.05,0.61,0.00,0.12,0.00,0.00,0.00,2
-0.04,-0.20,-1.22,2.62,0.67,0.00,0.26,0.00,0.00,0.00,2
-0.04,-0.20,-1.22,1.10,-0.12,0.18,0.18,0.00,0.00,0.00,2
-0.04,-0.20,-1.22,1.89,-0.24,-0.43,0.18,0.00,0.00,0.00,2
-0.04,-0.20,-1.23,2.32,0.06,-0.73,0.09,0.00,0.00,0.00,2
-0.05,-0.20,-1.23,2.81,-0.55,-0.79,0.30,0.00,0.00,0.00,2
-0.05,-0.21,-1.23,5.31,0.73,-0.12,0.12,0.00,0.00,0.00,2
-0.05,-0.20,-1.23,2.75,0.31,-0.12,0.25,0.00,0.00,0.00,2
-0.04,-0.21,-1.23,2.56,-0.18,-0.31,0.18,0.00,0.00,0.00,2
-0.05,-0.20,-1.22,3.48,0.73,0.79,0.24,0.00,0.00,0.00,2
-0.04,-0.20,-1.22,2.56,0.79,0.06,0.28,0.00,0.00,0.00,2
-0.04,-0.19,-1.22,1.77,0.12,-0.43,0.22,0.00,0.00,0.00,2
-0.04,-0.20,-1.21,2.87,0.00,-0.18,0.27,0.00,0.00,0.00,2
-0.04,-0.20,-1.21,1.53,-0.92,-0.43,0.24,0.00,0.00,0.00,2
-0.04,-0.20,-1.23,2.44,0.55,0.12,0.11,0.00,0.00,0.00,2
-0.05,-0.20,-1.22,2.69,0.55,0.00,0.30,0.00,0.00,0.00,2
-0.04,-0.20,-1.21,2.08,0.12,0.24,0.09,0.00,0.00,0.00,2
-0.05,-0.20,-1.22,3.91,0.61,0.49,0.29,0.00,0.00,0.00,2
-0.04,-0.20,-1.22,1.71,0.24,-0.18,0.28,0.00,0.00,0.00,2
-0.04,-0.20,-1.22,1.34,-0.55,0.18,0.16,0.00,0.00,0.00,2
-0.04,-0.20,-1.22,0.49,-0.92,-0.18,0.20,0.00,0.00,0.00,2
-0.05,-0.20,-1.22,3.36,-0.61,-0.92,0.28,0.00,0.00,0.00,2
-0.04,-0.20,-1.22,2.99,-0.43,0.24,0.21,0.00,0.00,0.00,2
-0.05,-0.20,-1.22,2.50,-0.18,0.18,0.14,0.00,0.00,0.00,2
-0.04,-0.20,-1.21,3.85,0.98,0.18,0.31,0.00,0.00,0.00,2
-0.04,-0.20,-1.22,1.89,-0.12,-0.31,0.09,0.00,0.00,0.00,2
-0.04,-0.20,-1.22,2.75,-0.18,-0.85,0.30,0.00,0.00,0.00,2
-0.04,-0.20,-1.22,3.11,0.18,-0.43,0.12,0.00,0.00,0.00,2
-0.04,-0.20,-1.23,2.38,-0.18,-0.31,0.13,0.00,0.00,0.00,2
-0.04,-0.20,-1.22,3.91,-0.73,-0.49,0.14,0.00,0.00,0.00,2
-0.05,-0.20,-1.22,2.75,0.18,-0.55,0.22,0.00,0.00,0.00,2
-0.04,-0.20,-1.22,3.05,0.06,-0.06,0.21,0.00,0.00,0.00,2
-0.04,-0.20,-1.23,2.26,0.37,-0.24,0.12,0.00,0.00,0.00,2
-0.04,-0.21,-1.22,3.36,0.37,0.61,0.08,0.00,0.00,0.00,2
-0.04,-0.20,-1.22,5.49,0.12,-0.31,0.18,0.00,0.00,0.00,2
-0.04,-0.20,-1.22,1.71,-0.31,-0.31,0.08,0.00,0.00,0.00,2
-0.04,-0.20,-1.22,3.11,1.28,0.12,0.08,0.00,0.00,0.00,2
-0.04,-0.20,-1.22,3.48,0.12,-0.06,0.32,0.00,0.00,0.00,2
-0.04,-0.20,-1.22,4.03,0.00,-0.37,0.11,0.00,0.00,0.00,2
-0.04,-0.20,-1.22,4.15,0.79,-0.37,0.25,0.00,0.00,0.00,2
-0.04,-0.20,-1.22,3.42,0.92,0.18,0.21,0.00,0.00,0.00,2
-0.04,-0.20,-1.22,4.09,0.37,0.12,0.14,0.00,0.00,0.00,2
-0.04,-0.20,-1.23,2.93,-0.18,-0.37,0.15,0.00,0.00,0.00,2
-0.04,-0.20,-1.22,3.78,0.24,-0.49,0.23,0.00,0.00,0.00,2
-0.04,-0.20,-1.22,3.91,1.40,-0.18,0.14,0.00,0.00,0.00,2
-0.04,-0.20,-1.22,3.23,-0.18,-0.12,0.28,0.00,0.00,0.00,2
-0.05,-0.20,-1.23,3.48,-0.31,-0.85,0.09,0.00,0.00,0.00,2
-0.04,-0.20,-1.22,2.20,-0.24,-0.49,0.32,0.00,0.00,0.00,2
-0.04,-0.20,-1.22,3.60,-0.06,-0.55,0.09,0.00,0.00,0.00,2
-0.04,-0.20,-1.22,1.83,-0.06,-0.12,0.29,0.00,0.00,0.00,2
-0.04,-0.20,-1.22,2.56,0.00,-0.37,0.15,0.00,0.00,0.00,2
-0.04,-0.20,-1.23,3.11,0.31,-0.43,0.32,0.00,0.00,0.00,2
-0.04,-0.20,-1.22,4.09,0.49,-0.37,0.32,0.00,0.00,0.00,2
-0.05,-0.20,-1.21,4.09,-0.98,0.06,0.32,0.00,0.00,0.00,2
-0.05,-0.19,-1.22,4.39,0.18,-0.06,0.10,0.00,0.00,0.00,2
-0.05,-0.20,-1.22,5.13,1.40,0.12,0.29,0.00,0.00,0.00,2
-0.04,-0.20,-1.22,3.97,1.22,-0.06,0.15,0.00,0.00,0.00,2
-0.05,-0.20,-1.22,4.39,-0.73,-0.49,0.11,0.00,0.00,0.00,2
-0.04,-0.20,-1.22,3.48,0.37,-0.06,0.13,0.00,0.00,0.00,2
-0.04,-0.20,-1.22,3.30,0.00,-0.06,0.14,0.00,0.00,0.00,2
-0.04,-0.20,-1.22,3.11,0.73,-0.18,0.22,0.00,0.00,0.00,2
-0.04,-0.20,-1.22,2.50,-0.49,0.06,0.22,0.00,0.00,0.00,2
-0.04,-0.20,-1.23,1.46,-1.16,-0.37,0.09,0.00,0.00,0.00,2
-0.04,-0.20,-1.22,3.42,-0.61,-0.43,0.09,0.00,0.00,0.00,2
-0.05,-0.20,-1.21,2.75,-0.73,-0.37,0.08,0.00,0.00,0.00,2
-0.04,-0.20,-1.22,3.23,0.06,-0.55,0.08,0.00,0.00,0.00,2
-0.04,-0.20,-1.22,3.17,0.00,-0.12,0.14,0.00,0.00,0.00,2
-0.05,-0.20,-1.22,2.87,-0.79,-1.34,0.22,0.00,0.00,0.00,2
-0.04,-0.20,-1.22,3.72,1.40,0.37,0.11,0.00,0.00,0.00,2
-0.05,-0.20,-1.22,3.17,-0.37,-0.92,0.20,0.00,0.00,0.00,2
-0.04,-0.20,-1.22,4.03,0.18,-0.61,0.26,0.00,0.00,0.00,2
-0.04,-0.19,-1.22,3.85,0.06,-0.67,0.27,0.00,0.00,0.00,2
-0.04,-0.20,-1.22,2.44,-0.79,-0.49,0.31,0.00,0.00,0.00,2
-0.04,-0.20,-1.22,1.40,-0.55,0.00,0.13,0.00,0.00,0.00,2
-0.04,-0.20,-1.22,2.99,-0.18,-0.12,0.23,0.00,0.00,0.00,2
-0.05,-0.20,-1.22,2.93,-0.49,-0.55,0.21,0.00,0.00,0.00,2
-0.05,-0.20,-1.22,4.46,1.46,0.00,0.11,0.00,0.00,0.00,2
-0.05,-0.20,-1.23,5.00,0.61,0.24,0.22,0.00,0.00,0.00,2
-0.04,-0.20,-1.22,3.66,-0.18,-0.06,0.30,0.00,0.00,0.00,2
-0.04,-0.20,-1.22,3.11,-1.83,-0.55,0.18,0.00,0.00,0.00,2
-0.05,-0.20,-1.21,1.34,-1.04,-0.55,0.16,0.00,0.00,0.00,2
-0.04,-0.20,-1.22,0.92,0.24,-0.31,0.30,0.00,0.00,0.00,2
-0.04,-0.20,-1.22,5.37,-0.31,-0.49,0.09,0.00,0.00,0.00,2
-0.04,-0.20,-1.22,2.56,-0.18,-0.18,0.32,0.00,0.00,0.00,2
-0.04,-0.20,-1.22,3.11,-0.12,-0.37,0.09,0.00,0.00,0.00,2
-0.04,-0.21,-1.23,3.17,0.18,0.06,0.25,0.00,0.00,0.00,2
-0.04,-0.20,-1.22,2.01,-0.61,0.18,0.22,0.00,0.00,0.00,2
-0.04,-0.20,-1.22,2.01,1.04,0.00,0.22,0.00,0.00,0.00,2
-0.04,-0.20,-1.22,2.08,-0.55,-0.43,0.12,0.00,0.00,0.00,2
-0.04,-0.20,-1.22,3.11,-0.37,-0.12,0.31,0.00,0.00,0.00,2
-0.04,-0.20,-1.23,2.75,-0.37,-0.24,0.08,0.00,0.00,0.00,2
-0.04,-0.20,-1.23,1.40,1.95,0.00,0.22,0.00,0.00,0.00,2
-0.04,-0.19,-1.25,1.10,0.24,-0.43,0.12,0.00,0.00,0.00,2
-0.04,-0.20,-1.22,2.20,-0.18,-0.06,0.30,0.00,0.00,0.00,2
-0.05,-0.25,-1.21,3.23,0.55,-0.06,0.13,0.00,0.00,0.00,2
-0.05,-0.25,-1.21,2.14,1.46,0.18,0.17,0.00,0.00,0.00,2
-0.05,-0.26,-1.21,2.69,-0.06,-0.18,0.33,0.00,0.00,0.00,2
-0.06,-0.25,-1.21,2.56,-0.79,-0.73,0.12,0.00,0.00,0.00,2
-0.05,-0.25,-1.21,3.23,0.73,-0.43,0.39,0.00,0.00,0.00,2
-0.05,-0.26,-1.21,2.20,-0.37,-0.43,0.10,0.00,0.00,0.00,2
-0.06,-0.25,-1.21,1.83,0.43,-0.37,0.40,0.00,0.00,0.00,2
-0.06,-0.24,-1.21,-0.12,0.12,1.04,0.22,0.00,0.00,0.14,2
-0.05,-0.25,-1.21,1.28,0.98,0.61,0.24,0.00,0.00,0.55,2
-0.05,-0.25,-1.21,1.10,0.18,-0.31,0.27,0.00,0.00,0.71,2
-0.06,-0.25,-1.21,2.69,0.18,0.24,0.24,0.00,0.00,0.96,2
-0.05,-0.25,-1.20,2.75,-1.53,-0.49,0.27,0.00,0.00,0.80,2
-0.05,-0.26,-1.20,3.48,-0.79,-0.18,0.24,0.00,0.00,0.77,2
-0.05,-0.26,-1.22,1.65,-0.79,0.61,0.40,0.00,0.00,0.00,2
-0.05,-0.25,-1.20,4.46,1.40,0.06,0.11,0.00,0.00,0.00,2
-0.05,-0.25,-1.21,3.85,-1.10,0.18,0.34,0.00,0.00,0.00,2
-0.06,-0.25,-1.22,2.50,-1.65,0.31,0.27,0.00,0.00,0.56,2
-0.05,-0.25,-1.21,1.95,0.43,-0.18,0.23,0.00,0.00,0.96,2
-0.05,-0.26,-1.20,1.04,-0.12,-0.24,0.29,0.00,0.00,0.00,2
-0.05,-0.24,-1.23,3.60,-0.67,-0.98,0.13,0.00,0.00,0.00,2
-0.05,-0.25,-1.21,0.98,-1.04,-1.04,0.38,0.00,0.00,0.00,2
-0.05,-0.25,-1.20,2.08,-0.85,-0.49,0.10,0.00,0.00,0.00,2
-0.06,-0.25,-1.20,5.31,-0.37,0.06,0.22,0.00,0.63,0.00,2
-0.05,-0.25,-1.22,3.05,0.00,-0.61,0.22,0.00,0.85,0.00,2
-0.05,-0.26,-1.21,5.43,1.10,0.24,0.19,0.00,0.45,0.00,2
-0.05,-0.26,-1.22,2.75,0.12,-0.31,0.29,0.00,0.00,0.00,2
-0.03,-0.26,-1.21,0.12,-5.98,-2.56,0.12,0.00,0.00,0.00,2
-0.06,-0.25,-1.19,-0.73,6.16,2.99,0.37,0.00,0.00,0.00,2
-0.04,-0.25,-1.21,3.42,-0.98,-0.49,0.08,0.00,0.00,0.00,2
-0.05,-0.26,-1.21,2.14,-0.06,0.00,0.40,0.00,0.00,0.00,2
-0.06,-0.25,-1.21,6.71,0.24,0.18,0.11,0.00,0.00,0.00,2
-0.06,-0.25,-1.21,4.21,-0.43,-0.37,0.22,0.00,0.51,0.00,2
-0.05,-0.25,-1.21,2.26,0.37,-0.24,0.23,0.00,0.67,0.00,2
-0.05,-0.25,-1.22,1.28,-0.37,-0.31,0.18,0.00,0.73,0.00,2
-0.06,-0.26,-1.20,3.72,0.55,0.12,0.27,0.00,0.00,0.00,2
-0.05,-0.25,-1.21,3.30,0.24,-0.18,0.14,0.00,0.00,0.00,2
-0.05,-0.25,-1.21,3.30,-0.24,-0.61,0.35,0.00,0.00,0.00,2
-0.06,-0.26,-1.21,3.11,0.37,0.06,0.08,0.00,0.00,0.00,2
-0.06,-0.25,-1.21,4.27,0.92,0.67,0.26,0.00,0.00,0.00,2
-0.05,-0.25,-1.21,3.17,-0.12,-0.85,0.14,0.00,0.00,0.56,2
-0.05,-0.25,-1.21,2.81,-0.43,-0.18,0.37,0.00,0.00,0.60,2
-0.05,-0.25,-1.21,3.05,-0.49,-0.06,0.19,0.00,0.00,0.42,2
-0.05,-0.24,-1.22,2.38,1.71,0.79,0.27,0.00,0.00,0.00,2
-0.04,-0.26,-1.20,0.85,1.22,0.61,0.22,0.00,0.00,0.00,2
-0.05,-0.25,-1.20,3.85,-0.24,-0.37,0.17,0.00,0.00,0.00,2
-0.05,-0.26,-1.20,2.50,-0.12,-1.46,0.21,0.00,0.00,0.00,2
-0.06,-0.28,-1.21,0.61,2.26,0.12,0.41,0.00,0.00,0.00,2
-0.06,-0.28,-1.20,1.77,1.40,0.43,0.12,0.00,0.00,0.00,2
-0.05,-0.28,-1.19,2.26,-0.55,1.16,0.46,0.00,0.00,0.00,2
-0.05,-0.28,-1.21,2.99,2.75,-1.40,0.12,0.00,0.00,0.00,2
-0.06,-0.28,-1.21,3.05,-1.83,-0.12,0.45,0.32,0.00,0.00,2
-0.06,-0.27,-1.21,0.06,-0.37,0.92,0.12,0.65,0.00,0.00,2
-0.08,-0.27,-1.21,3.78,0.67,0.18,0.44,0.57,0.00,0.00,2
-0.07,-0.29,-1.20,4.58,0.31,-2.20,0.13,0.00,0.00,0.00,2
-0.06,-0.28,-1.21,3.97,2.14,-0.49,0.44,0.00,0.00,0.75,2
-0.06,-0.27,-1.19,2.75,0.43,-0.55,0.19,0.00,0.00,0.81,2
-0.06,-0.27,-1.20,3.23,-0.92,0.00,0.42,0.00,0.00,0.91,2
-0.07,-0.27,-1.18,1.40,0.61,-0.43,0.18,0.05,0.00,0.00,2
-0.06,-0.28,-1.21,3.11,2.14,1.65,0.33,0.46,0.00,0.00,2
-0.05,-0.27,-1.20,1.83,-1.10,-0.79,0.22,0.70,0.00,0.00,2
-0.07,-0.28,-1.19,-0.73,-3.66,-0.98,0.29,0.55,0.00,0.00,2
-0.06,-0.28,-1.19,4.03,1.77,2.32,0.28,0.00,0.00,0.00,2
-0.07,-0.28,-1.19,2.26,0.00,0.92,0.24,0.00,0.00,0.00,2
-0.05,-0.27,-1.20,2.62,-2.14,-0.43,0.24,0.00,0.00,0.00,2
-0.06,-0.27,-1.20,2.08,0.06,0.12,0.25,0.00,0.00,0.00,2
-0.06,-0.27,-1.20,3.30,0.92,-0.06,0.25,0.00,0.00,0.00,2
-0.06,-0.28,-1.20,1.22,-1.40,0.37,0.27,0.00,0.00,0.00,2
-0.05,-0.27,-1.21,6.16,-0.18,8.61,0.27,0.00,0.00,0.00,2
-0.06,-0.29,-1.21,-0.12,-0.43,-3.36,0.28,0.00,0.00,0.00,2
-0.07,-0.28,-1.20,3.97,-0.37,0.37,0.25,0.00,0.00,0.00,2
-0.06,-0.28,-1.20,2.62,1.34,0.67,0.23,0.00,0.00,0.00,2
-0.06,-0.28,-1.20,1.65,-0.55,-0.18,0.28,0.00,0.00,0.00,2
-0.06,-0.27,-1.19,4.03,0.55,-0.18,0.20,0.00,0.00,0.00,2
-0.06,-0.28,-1.21,4.21,-0.31,-0.61,0.32,0.00,0.00,0.00,2
-0.06,-0.28,-1.21,2.14,0.06,-0.73,0.18,0.00,0.00,0.00,2
-0.09,-0.25,-1.20,1.71,-2.44,-0.73,0.30,0.00,0.00,0.00,2
-0.05,-0.28,-1.21,3.85,-0.98,-6.10,0.18,0.00,0.00,0.00,2
-0.06,-0.27,-1.20,-0.85,-0.49,5.13,0.32,0.00,0.00,0.00,2
-0.04,-0.28,-1.20,5.43,-1.95,-1.89,0.18,0.00,0.00,0.00,2
-0.07,-0.27,-1.21,2.32,3.78,-0.49,0.35,0.00,0.00,0.00,2
-0.07,-0.30,-1.17,8.36,0.92,7.75,0.20,0.00,0.00,0.00,2
-0.05,-0.31,-1.20,3.05,-2.93,3.54,0.33,0.00,0.00,0.00,2
-0.06,-0.32,-1.20,16.11,13.00,7.93,0.18,0.00,0.00,0.00,2
-0.05,-0.28,-1.19,5.80,0.43,-2.81,0.30,0.00,0.00,0.00,2
-0.08,-0.30,-1.23,5.25,-3.54,-3.17,0.20,0.00,0.00,0.00,2
-0.08,-0.32,-1.21,-3.66,-6.41,-1.53,0.33,0.00,0.00,0.00,2
-0.06,-0.28,-1.21,11.54,3.11,-0.55,0.22,0.00,0.00,0.00,2
-0.06,-0.27,-1.22,6.16,1.89,-1.59,0.24,0.00,0.00,0.00,2
-0.06,-0.27,-1.20,1.71,-2.99,-1.65,0.25,0.00,0.00,0.00,2
-0.08,-0.27,-1.20,5.86,-0.31,0.61,0.26,0.00,0.00,0.00,2
-0.07,-0.27,-1.20,3.54,0.73,-0.24,0.22,0.00,0.00,0.00,2
-0.07,-0.28,-1.22,2.87,-0.67,-1.77,0.29,0.00,0.00,0.00,2
-0.07,-0.27,-1.20,2.81,0.12,0.37,0.21,0.00,0.58,0.00,2
-0.06,-0.28,-1.20,1.89,-0.55,-0.37,0.31,0.00,0.00,0.00,2
-0.07,-0.27,-1.19,0.73,0.43,0.67,0.18,0.00,0.00,0.00,2
-0.06,-0.27,-1.20,0.73,-3.42,-1.95,0.33,0.00,0.64,0.00,2
-0.07,-0.28,-1.20,3.97,1.53,0.79,0.16,0.00,0.85,0.00,2
-0.07,-0.26,-1.20,2.32,-1.10,0.55,0.37,0.00,0.94,0.00,2
-0.06,-0.28,-1.20,2.01,-0.79,0.12,0.13,0.00,0.00,0.00,2
-0.07,-0.28,-1.19,1.40,0.73,1.65,0.38,0.00,0.00,0.00,2
-0.07,-0.28,-1.20,0.55,1.40,0.55,0.11,0.00,0.00,0.00,2
-0.07,-0.27,-1.20,0.67,0.43,0.00,0.40,0.00,0.00,0.00,2
-0.07,-0.27,-1.20,2.56,1.10,-0.06,0.12,0.00,0.00,0.00,2
-0.07,-0.27,-1.20,3.60,-0.06,-0.43,0.39,0.00,0.00,0.00,2
-0.05,-0.28,-1.17,-0.73,3.48,-0.43,0.10,0.00,0.00,0.00,2
-0.06,-0.27,-1.21,6.41,1.34,-0.55,0.41,0.00,0.00,0.00,2
-0.07,-0.26,-1.20,3.72,-0.37,-0.43,0.10,0.00,0.00,0.00,2
-0.06,-0.27,-1.21,1.53,1.10,0.61,0.41,0.00,0.00,0.00,2
-0.07,-0.28,-1.19,0.92,0.61,-0.12,0.10,0.00,0.00,0.00,2
-0.07,-0.27,-1.21,2.56,0.73,1.95,0.41,0.00,0.00,0.00,2
-0.07,-0.27,-1.21,1.71,-0.92,0.67,0.13,0.00,0.34,0.00,2
-0.07,-0.27,-1.20,1.95,1.16,0.79,0.36,0.00,0.68,0.00,2
-0.07,-0.28,-1.21,1.34,-0.24,-0.55,0.12,0.00,0.70,0.00,2
-0.07,-0.28,-1.20,3.42,0.49,0.43,0.33,0.00,0.73,0.00,2
-0.07,-0.27,-1.20,2.75,-0.73,-0.06,0.12,0.00,0.79,0.00,2
-0.06,-0.27,-1.21,4.94,2.44,0.06,0.40,0.00,0.00,0.00,2
-0.06,-0.27,-1.22,1.65,-1.04,-1.10,0.10,0.00,0.00,0.00,2
-0.08,-0.27,-1.20,3.60,1.04,1.59,0.36,0.45,0.00,0.00,2
-0.06,-0.27,-1.20,5.13,1.65,1.77,0.12,0.78,0.00,0.00,2
-0.07,-0.28,-1.20,2.50,-2.01,1.10,0.33,0.00,0.00,0.00,2
-0.05,-0.27,-1.22,4.33,2.38,5.13,0.11,0.00,0.00,0.00,2
-0.07,-0.25,-1.21,1.16,-2.01,-0.12,0.33,0.00,0.00,0.00,2
-0.06,-0.28,-1.20,-0.55,4.15,-4.88,0.17,0.00,0.00,0.66,2
-0.07,-0.27,-1.20,3.36,0.61,-1.04,0.33,0.00,0.00,0.90,2
-0.06,-0.28,-1.20,4.21,1.59,-2.81,0.17,0.00,0.00,0.00,2
-0.05,-0.30,-1.21,10.50,3.85,0.00,0.28,0.00,0.00,0.00,2
-0.06,-0.27,-1.18,6.04,2.44,-1.46,0.15,0.00,0.00,0.00,2
-0.06,-0.27,-1.20,2.01,-2.26,-1.04,0.29,0.00,0.00,0.00,2
-0.06,-0.26,-1.21,1.59,-1.04,-0.31,0.45,0.00,0.00,0.00,2
-0.07,-0.27,-1.21,3.48,0.12,-0.37,0.26,0.00,0.00,0.00,2
-0.06,-0.27,-1.21,3.05,0.67,0.67,0.22,0.00,0.00,0.00,2
-0.06,-0.27,-1.20,2.44,0.24,-0.18,0.26,0.00,0.00,0.00,2
-0.06,-0.27,-1.19,4.09,-0.79,0.67,0.22,0.39,0.00,0.00,2
-0.06,-0.26,-1.19,3.91,0.67,0.18,0.33,0.50,0.00,0.00,2
-0.06,-0.27,-1.21,4.27,-0.12,-0.37,0.16,0.29,0.00,0.00,2
-0.06,-0.26,-1.20,5.55,1.59,-0.06,0.41,0.00,0.00,0.10,2
-0.06,-0.26,-1.20,3.91,-0.49,-0.18,0.14,0.00,0.00,0.49,2
-0.06,-0.27,-1.19,4.03,-0.92,-0.61,0.50,0.00,0.00,0.56,2
-0.06,-0.27,-1.21,3.05,-0.12,-0.12,0.11,0.00,0.00,0.61,2
-0.06,-0.26,-1.21,2.50,0.61,0.00,0.47,0.22,0.00,0.00,2
-0.06,-0.26,-1.20,2.81,-0.73,-0.73,0.06,0.67,0.00,0.00,2
-0.07,-0.26,-1.21,2.26,1.22,0.31,0.46,0.55,0.00,0.00,2
-0.06,-0.27,-1.20,3.05,0.79,-0.06,0.07,0.00,0.00,0.00,2
-0.05,-0.26,-1.20,3.54,-0.06,-1.83,0.42,0.00,0.80,0.00,2
-0.06,-0.26,-1.19,3.97,-1.40,0.00,0.11,0.00,0.93,0.00,2
-0.05,-0.26,-1.21,7.87,0.31,1.59,0.42,0.00,0.00,0.00,2
-0.06,-0.27,-1.21,3.72,1.65,0.73,0.11,0.00,0.00,0.00,2
-0.07,-0.28,-1.21,2.62,-1.95,2.50,0.40,0.00,0.00,0.00,2
-0.06,-0.27,-1.19,6.04,3.23,-3.85,0.11,0.00,0.00,0.00,2
-0.09,-0.25,-1.15,2.14,-0.43,-3.85,0.33,0.00,0.00,0.00,2
-0.08,-0.26,-1.18,2.99,2.50,-0.12,0.18,0.00,0.00,0.00,2
-0.05,-0.30,-1.15,6.16,0.37,2.99,0.26,0.00,0.00,0.00,2
-0.07,-0.28,-1.16,8.24,2.50,-3.85,0.26,0.00,0.00,0.00,2
-0.04,-0.26,-1.22,5.80,11.84,2.81,0.19,0.00,0.00,0.00,2
-0.05,-0.27,-1.19,2.50,1.95,0.43,0.34,0.00,0.00,0.00,2
-0.06,-0.26,-1.20,2.62,0.12,-0.06,0.13,0.00,0.00,0.00,2
-0.06,-0.26,-1.21,4.21,0.18,-0.24,0.34,0.00,0.00,0.00,2
-0.06,-0.26,-1.21,4.64,-0.06,-0.24,0.13,0.00,0.00,0.00,2
-0.06,-0.27,-1.21,3.78,-0.79,-0.24,0.41,0.00,0.00,0.00,2
-0.06,-0.27,-1.21,4.33,2.44,-0.55,0.09,0.00,0.00,0.00,2
-0.06,-0.25,-1.23,2.62,-0.55,-0.43,0.45,0.00,0.00,0.00,2
-0.05,-0.27,-1.20,-1.34,-0.18,0.98,0.06,0.00,0.00,0.00,2
-0.06,-0.26,-1.20,1.16,-1.16,0.18,0.46,0.00,0.00,0.00,2
-0.06,-0.28,-1.20,4.46,1.95,0.49,0.05,0.00,0.00,0.00,2
-0.06,-0.26,-1.21,4.09,0.00,-1.10,0.44,0.00,0.00,0.00,2
-0.06,-0.27,-1.20,3.60,-0.18,-0.24,0.07,0.00,0.00,0.00,2
-0.06,-0.27,-1.20,2.20,-0.61,0.61,0.38,0.00,0.00,0.00,2
-0.06,-0.27,-1.21,2.81,1.46,-0.18,0.13,0.00,0.00,0.00,2
-0.05,-0.28,-1.19,2.81,0.12,0.24,0.29,0.00,0.00,0.00,2
-0.06,-0.27,-1.20,1.59,-3.36,-2.01,0.18,0.00,0.00,0.00,2
-0.07,-0.27,-1.22,1.34,5.98,2.26,0.24,0.00,0.00,0.00,2
-0.06,-0.27,-1.21,0.79,-2.44,-0.98,0.26,0.00,0.00,0.00,2
-0.06,-0.26,-1.20,1.89,0.06,0.06,0.18,0.00,0.00,0.00,2
-0.07,-0.27,-1.20,2.62,-0.92,-3.66,0.35,0.00,0.00,0.00,2
-0.05,-0.27,-1.22,3.48,4.09,3.36,0.11,0.00,0.00,0.00,2
-0.06,-0.27,-1.19,0.61,-11.96,-3.17,0.42,0.00,0.00,0.00,2
-0.05,-0.27,-1.19,1.10,3.48,0.24,0.07,0.00,0.00,0.00,2
-0.07,-0.27,-1.20,4.76,-1.40,-0.12,0.45,0.00,0.00,0.00,2
-0.06,-0.27,-1.21,5.07,0.06,-0.18,0.05,0.00,0.00,0.00,2
-0.06,-0.27,-1.21,3.11,-0.55,-0.67,0.45,0.00,0.00,0.00,2
-0.06,-0.27,-1.20,2.62,0.49,0.18,0.06,0.00,0.00,0.00,2
-0.06,-0.27,-1.21,2.26,-0.06,-0.18,0.40,0.00,0.00,0.00,2
-0.06,-0.27,-1.20,1.34,0.18,0.12,0.11,0.00,0.00,0.00,2
-0.06,-0.27,-1.20,3.05,0.79,0.31,0.33,0.00,0.00,0.00,2
-0.06,-0.27,-1.21,3.05,-0.31,-0.43,0.17,0.00,0.00,0.00,2
0.00,-0.27,-1.21,12.21,6.41,-11.66,0.22,0.00,0.00,0.00,2
-0.04,-0.27,-1.21,5.19,0.31,-0.92,0.27,0.00,0.00,0.00,2
-0.06,-0.27,-1.20,2.08,-1.10,-0.85,0.17,0.00,0.00,0.00,2
-0.06,-0.29,-1.20,7.26,1.16,-0.92,0.36,0.00,0.00,0.00,2
-0.06,-0.28,-1.21,4.27,1.16,0.43,0.10,0.00,0.00,0.00,2
-0.06,-0.27,-1.20,2.14,-0.31,-0.37,0.39,0.00,0.00,0.00,2
-0.06,-0.26,-1.21,5.07,0.43,-0.24,0.08,0.00,0.00,0.00,2
-0.06,-0.26,-1.20,3.17,-0.92,-0.37,0.41,0.00,0.00,0.00,2
-0.06,-0.26,-1.19,3.54,0.37,-0.31,0.07,0.00,0.00,0.00,2
-0.06,-0.26,-1.20,2.20,-0.18,-0.18,0.44,0.00,0.00,0.00,2
-0.06,-0.26,-1.21,3.66,1.16,0.31,0.05,0.00,0.00,0.00,2
-0.06,-0.26,-1.21,3.54,-0.55,-0.49,0.45,0.00,0.00,0.00,2
-0.06,-0.27,-1.21,4.94,-0.61,-0.55,0.05,0.00,0.00,0.00,2
-0.06,-0.26,-1.20,2.38,0.00,-0.24,0.40,0.00,0.00,0.00,2
-0.06,-0.27,-1.20,3.17,-0.12,-0.49,0.06,0.00,0.00,0.00,2
-0.06,-0.27,-1.21,3.17,-1.10,-0.37,0.38,0.00,0.00,0.00,2
-0.06,-0.27,-1.21,3.60,-0.49,-0.31,0.12,0.00,0.00,0.00,2
0.03,-0.35,-1.18,2.56,0.12,0.24,0.00,0.00,0.00,0.00,2
0.03,-0.35,-1.17,2.32,0.00,0.00,0.00,0.00,0.00,0.00,2
0.02,-0.35,-1.17,2.87,0.24,-0.31,0.00,0.00,0.00,0.00,2
0.03,-0.35,-1.18,2.99,-0.06,-0.24,0.00,0.00,0.00,0.00,2
0.02,-0.36,-1.16,2.93,-0.37,-0.92,0.00,0.00,0.00,0.00,2
0.03,-0.35,-1.17,3.11,0.24,0.18,0.24,0.00,0.00,0.00,2
0.02,-0.35,-1.18,2.26,-0.73,-0.43,0.24,0.00,0.00,0.00,2
0.02,-0.35,-1.17,3.30,0.00,0.00,0.24,0.00,0.00,0.00,2
0.02,-0.34,-1.18,2.01,0.85,-0.73,0.00,0.00,0.00,0.00,2
0.03,-0.35,-1.17,2.93,-0.43,-0.61,0.00,0.00,0.46,0.00,2
0.03,-0.35,-1.18,2.56,0.24,-0.31,0.00,0.00,0.52,0.00,2
0.02,-0.35,-1.17,3.11,0.00,-0.24,0.00,0.05,0.00,0.00,2
0.03,-0.35,-1.17,2.75,-0.06,-0.31,0.00,0.41,0.00,0.00,2
0.02,-0.35,-1.17,3.11,0.06,-0.12,0.00,0.52,0.00,0.00,2
0.02,-0.35,-1.17,2.93,0.24,-0.31,0.00,0.17,0.00,0.00,2
0.02,-0.36,-1.17,3.60,-0.55,-0.06,0.00,0.00,0.00,0.00,2
0.03,-0.35,-1.17,2.81,-0.18,-0.31,0.00,0.00,0.00,0.00,2
0.02,-0.35,-1.18,2.93,-0.06,-0.37,0.00,0.00,0.00,0.00,2
0.03,-0.35,-1.18,2.93,0.00,0.12,0.00,0.00,0.00,0.00,2
0.02,-0.35,-1.17,2.75,0.00,-0.31,0.00,0.00,0.00,0.00,2
0.02,-0.35,-1.17,0.18,-0.18,-1.28,0.00,0.00,0.00,0.00,2
0.03,-0.35,-1.17,2.87,0.31,-0.55,0.00,0.00,0.00,0.00,2
0.04,-0.35,-1.17,3.17,0.55,-0.43,0.00,0.00,0.00,0.00,2
0.03,-0.35,-1.18,2.32,0.24,-0.31,0.00,0.00,0.00,0.00,2
0.02,-0.35,-1.17,3.05,-0.06,-0.06,0.00,0.00,0.00,0.00,2
0.02,-0.35,-1.17,2.99,-0.55,-0.43,0.00,0.00,0.00,0.00,2
0.02,-0.34,-1.18,3.48,-0.24,-0.55,0.00,0.00,0.00,0.00,2
0.02,-0.35,-1.17,2.38,0.79,-0.67,0.00,0.00,0.00,0.00,2
0.03,-0.35,-1.18,2.99,0.31,-0.49,0.28,0.00,0.00,0.00,2
0.02,-0.35,-1.18,1.95,-0.43,-0.18,0.33,0.00,0.00,0.00,2
0.03,-0.35,-1.18,3.17,0.55,-0.18,0.00,0.00,0.00,0.00,2
0.02,-0.35,-1.18,2.62,0.12,-0.43,0.00,0.00,0.52,0.00,2
0.03,-0.35,-1.17,2.81,-0.12,-0.43,0.00,0.00,0.61,0.00,2
0.02,-0.36,-1.18,2.56,-0.12,-0.18,0.00,0.00,0.35,0.00,2
0.03,-0.35,-1.18,2.75,-0.24,-0.18,0.00,0.34,0.00,0.00,2
0.02,-0.35,-1.19,2.62,0.24,-0.67,0.00,0.45,0.00,0.00,2
0.02,-0.36,-1.17,2.87,-0.43,0.00,0.00,0.00,0.00,0.00,2
0.03,-0.35,-1.18,2.69,0.00,-0.18,0.00,0.00,0.00,0.00,2
0.03,-0.35,-1.18,2.69,0.06,-0.43,0.00,0.00,0.00,0.00,2
0.03,-0.35,-1.17,3.11,-0.12,-0.18,0.00,0.00,0.00,0.00,2
0.02,-0.35,-1.17,2.99,-0.12,-0.31,0.00,0.00,0.00,0.00,2
0.03,-0.35,-1.17,3.05,-0.12,-0.49,0.00,0.00,0.00,0.00,2
0.02,-0.35,-1.17,2.93,-0.24,-0.31,0.00,0.00,0.00,0.00,2
0.03,-0.35,-1.18,2.75,0.37,-0.55,0.00,0.00,0.00,0.00,2
0.03,-0.35,-1.18,2.69,0.12,-0.06,0.00,0.00,0.00,0.00,2
0.03,-0.35,-1.17,2.56,0.06,-0.37,0.00,0.00,0.00,0.00,2
0.03,-0.34,-1.17,2.69,0.12,-0.18,0.00,0.00,0.00,0.00,2
0.03,-0.35,-1.17,2.87,0.00,-0.31,0.00,0.00,0.00,0.00,2
0.03,-0.35,-1.17,2.69,-0.18,-0.31,0.00,0.00,0.00,0.00,2
0.03,-0.35,-1.17,2.69,0.06,-0.31,0.00,0.00,0.00,0.00,2
0.03,-0.35,-1.18,2.81,0.00,-0.49,0.00,0.00,0.00,0.00,2
0.02,-0.34,-1.18,2.14,-0.73,-2.50,0.00,0.00,0.00,0.00,2
0.02,-0.33,-1.20,-5.80,1.59,3.05,0.00,0.00,0.00,0.00,2
0.03,-0.34,-1.18,4.88,-1.53,0.43,0.00,0.00,0.00,0.00,2
0.02,-0.32,-1.20,1.71,-1.16,-3.30,0.00,0.00,0.00,0.00,2
0.06,-0.35,-1.18,3.72,0.98,0.43,0.00,0.00,0.00,0.00,2
0.03,-0.34,-1.19,1.95,-3.30,-0.12,0.00,0.00,0.00,0.00,2
0.01,-0.35,-1.15,3.72,-4.21,-2.01,0.00,0.00,0.00,0.00,2
0.07,-0.35,-1.20,-0.12,2.99,-0.73,0.00,0.00,0.00,0.00,2
0.03,-0.35,-1.17,3.17,-0.61,-0.61,0.00,0.00,0.00,0.00,2
0.04,-0.36,-1.17,2.93,0.18,0.12,0.00,0.00,0.00,0.00,2
0.01,-0.34,-1.17,3.85,0.73,-3.72,0.00,0.00,0.00,0.00,2
0.01,-0.32,-1.20,-1.40,-2.32,0.92,0.00,0.00,0.00,0.00,2
0.02,-0.34,-1.18,4.33,1.71,-0.31,0.00,0.00,0.00,0.00,2
0.03,-0.36,-1.17,3.36,0.37,-2.50,0.00,0.00,0.00,0.00,2
0.01,-0.34,-1.18,3.36,-0.12,-0.24,0.00,0.00,0.00,0.00,2
0.00,-0.33,-1.18,0.55,-2.01,0.67,0.00,0.00,0.00,0.00,2
0.02,-0.38,-1.18,-13.98,-6.47,3.85,0.00,0.00,0.00,0.00,2
0.02,-0.35,-1.16,4.03,0.79,1.34,0.00,0.00,0.00,0.00,2
0.01,-0.34,-1.16,-1.65,-1.83,-0.12,0.00,0.00,0.00,0.00,2
0.03,-0.35,-1.17,2.62,0.18,-0.06,0.00,0.00,0.00,0.00,2
0.03,-0.36,-1.17,2.93,-0.31,-0.06,0.00,0.00,0.00,0.00,2
0.03,-0.34,-1.18,5.98,1.89,-1.34,0.00,0.00,0.00,0.00,2
0.03,-0.34,-1.16,7.75,-2.69,-4.76,0.00,0.00,0.00,0.00,2
0.04,-0.33,-1.18,2.75,0.67,-1.46,0.00,0.00,0.00,0.00,2
0.03,-0.33,-1.19,0.37,1.10,-4.70,0.00,0.00,0.00,0.00,2
0.02,-0.32,-1.20,-1.65,-1.10,-0.24,0.00,0.00,0.00,0.00,2
0.02,-0.34,-1.19,2.99,0.92,-1.59,0.00,0.00,0.00,0.00,2
0.03,-0.35,-1.18,3.78,0.18,-0.55,0.00,0.00,0.00,0.00,2
0.02,-0.35,-1.17,2.62,0.12,-0.37,0.00,0.00,0.00,0.00,2
0.02,-0.34,-1.17,2.81,0.12,-0.37,0.00,0.00,0.00,0.00,2
0.02,-0.35,-1.17,2.75,0.06,-0.49,0.00,0.00,0.00,0.00,2
0.01,-0.34,-1.17,12.21,4.39,-2.69,0.00,0.00,0.00,0.00,2
0.02,-0.32,-1.18,-3.91,0.79,-2.01,0.00,0.00,0.00,0.00,2
0.02,-0.31,-1.21,2.75,1.34,-0.92,0.13,0.00,0.00,0.00,2
0.04,-0.33,-1.17,0.92,3.91,0.79,0.00,0.00,0.00,0.00,2
0.01,-0.34,-1.18,-5.37,0.00,1.65,0.06,0.00,0.00,0.00,2
0.01,-0.36,-1.17,3.17,3.72,0.31,0.05,0.00,0.00,0.00,2
0.05,-0.38,-1.16,7.57,2.32,-7.87,0.00,0.00,0.00,0.00,2
0.02,-0.35,-1.18,-1.53,-2.62,2.38,0.00,0.00,0.00,0.00,2
0.04,-0.36,-1.18,8.12,4.58,-0.31,0.00,0.00,0.00,0.00,2
0.01,-0.36,-1.16,0.92,-0.18,0.18,0.00,0.00,0.00,0.00,2
0.01,-0.36,-1.16,2.32,0.00,-0.24,0.00,0.00,0.00,0.00,2
0.01,-0.36,-1.18,2.93,0.24,-0.31,0.00,0.00,0.00,0.00,2
0.01,-0.36,-1.17,3.11,-0.06,0.12,0.00,0.00,0.00,0.00,2
0.01,-0.36,-1.17,2.32,0.37,0.12,0.00,0.00,0.00,0.00,2
0.01,-0.36,-1.17,3.23,0.12,0.00,0.00,0.00,0.00,0.00,2
-0.01,-0.36,-1.16,4.09,0.12,-6.59,0.00,0.00,0.00,0.00,2
0.01,-0.37,-1.15,-0.49,-4.58,-4.58,0.00,0.00,0.00,0.00,2
0.02,-0.36,-1.17,0.73,0.73,-5.74,0.00,0.00,0.00,0.00,2
0.04,-0.35,-1.20,1.53,4.15,4.46,0.00,0.00,0.00,0.00,2
0.02,-0.40,-1.17,8.12,-5.49,-0.92,0.00,0.00,0.00,0.00,2
0.01,-0.36,-1.14,7.14,-4.94,0.98,0.00,0.00,0.00,0.00,2
-0.00,-0.35,-1.19,2.81,3.17,-2.32,0.00,0.00,0.00,0.00,2
0.03,-0.36,-1.17,4.15,-1.34,4.88,0.00,0.00,0.00,0.00,2
0.03,-0.42,-1.17,12.27,-23.07,-24.11,0.00,0.00,0.00,0.00,2
-0.01,-0.36,-1.20,-3.78,-2.62,11.11,0.00,0.00,0.00,0.00,2
0.02,-0.38,-1.15,0.24,-3.36,-2.87,0.00,0.00,0.00,0.00,2
0.05,-0.22,-1.17,-10.50,10.99,12.21,0.00,0.00,0.00,0.00,2
0.03,-0.34,-1.19,-0.37,3.66,4.76,0.00,0.00,0.00,0.00,2
0.02,-0.34,-1.15,7.51,-1.65,1.77,0.00,0.00,0.00,0.00,2
0.04,-0.35,-1.22,-0.12,3.23,0.24,0.00,0.00,0.00,0.00,2
0.05,-0.38,-1.18,6.71,4.27,-6.65,0.00,0.00,0.00,0.00,2
-0.06,-0.34,-1.19,0.73,-7.81,12.39,0.00,0.00,0.00,0.00,2
0.03,-0.36,-1.18,3.17,2.50,-1.22,0.00,0.00,0.00,0.00,2
0.05,-0.33,-1.22,0.37,3.17,2.38,0.00,0.00,0.00,0.00,2
0.01,-0.33,-1.21,1.28,-2.93,0.55,0.00,0.00,0.00,0.00,2
0.02,-0.36,-1.17,4.15,-0.79,0.12,0.00,0.00,0.00,0.00,2
0.05,-0.37,-1.18,2.75,4.09,2.26,0.00,0.00,0.00,0.00,2
0.01,-0.36,-1.17,5.68,0.79,-2.93,0.00,0.00,0.00,0.00,2
-0.23,-0.34,-0.96,1.28,-34.48,-25.27,0.00,0.00,0.00,0.00,2
0.02,-0.37,-1.13,24.84,4.21,-3.85,0.00,0.00,0.00,0.00,2
0.02,-0.36,-1.17,4.76,0.00,2.26,0.00,0.00,0.00,0.00,2
0.04,-0.09,-1.23,3.17,-0.06,-1.59,0.00,0.00,0.00,0.00,2
0.04,-0.09,-1.24,2.93,0.00,-1.10,0.00,0.00,0.08,0.00,2
0.04,-0.09,-1.23,3.48,-0.06,-1.04,0.00,0.00,0.00,0.00,2
0.04,-0.08,-1.24,3.23,-0.06,-1.34,0.53,0.00,0.57,0.00,2
0.04,-0.09,-1.24,3.30,0.18,-1.28,0.00,0.00,0.00,0.00,2
0.04,-0.08,-1.24,3.05,0.00,-0.98,0.59,0.00,2.05,0.00,2
0.04,-0.09,-1.24,3.48,-0.31,-1.28,0.00,0.00,0.00,0.00,2
0.05,-0.08,-1.24,3.30,-0.06,-0.79,0.23,0.00,173015040.00,0.00,2
0.04,-0.09,-1.23,3.30,-0.12,-1.22,0.00,0.00,50.27,0.00,2
0.04,-0.08,-1.24,2.93,0.00,-1.28,0.00,0.00,0.48,0.00,2
0.04,-0.08,-1.24,3.60,-0.61,0.00,0.00,0.00,65.75,0.00,2
0.04,-0.09,-1.24,3.36,-0.31,-1.04,0.08,0.00,173015040.00,0.00,2
0.05,-0.09,-1.24,2.93,-0.49,-0.79,0.00,0.00,0.74,0.00,2
0.05,-0.09,-1.23,3.11,-0.18,-1.16,0.00,0.00,0.33,0.00,2
0.05,-0.09,-1.23,3.42,-0.24,-1.28,0.00,173015040.00,0.33,0.00,2
0.05,-0.09,-1.23,3.05,0.00,-0.98,0.06,173015040.00,0.23,0.00,2
0.04,-0.09,-1.24,2.93,0.00,-1.10,0.00,0.94,0.21,0.00,2
0.05,-0.08,-1.24,2.44,0.12,-1.16,0.00,0.49,0.09,0.00,2
0.05,-0.08,-1.24,2.87,-0.06,-0.79,0.00,0.42,0.23,0.00,2
0.04,-0.08,-1.24,3.23,0.06,-1.16,0.00,0.35,0.17,0.00,2
0.05,-0.09,-1.24,3.11,-0.31,-1.28,0.00,0.29,0.24,0.00,2
0.05,-0.09,-1.24,3.17,0.06,-1.10,0.00,0.26,0.10,0.00,2
0.05,-0.08,-1.24,2.99,0.12,-1.10,0.00,0.22,0.24,0.00,2
0.05,-0.08,-1.24,3.30,-0.06,-1.10,0.00,0.20,0.06,0.00,2
0.05,-0.09,-1.24,3.17,0.06,-1.10,0.00,0.18,0.26,0.00,2
0.05,-0.09,-1.23,3.05,0.00,-1.10,0.00,0.16,0.00,0.00,2
0.04,-0.09,-1.23,3.30,-0.06,-1.10,0.00,0.16,0.26,0.00,2
0.05,-0.09,-1.23,3.23,0.06,-1.10,0.00,0.14,0.00,0.00,2
0.04,-0.08,-1.23,3.54,-0.24,-1.22,0.00,0.13,0.23,0.00,2
0.05,-0.08,-1.24,2.81,0.00,-1.10,0.00,0.12,0.00,0.00,2
0.04,-0.09,-1.23,2.93,-0.18,-0.92,0.00,0.11,0.24,0.00,2
0.04,-0.08,-1.24,3.05,0.06,-1.16,0.00,0.10,0.00,0.00,2
0.04,-0.09,-1.24,3.17,-0.49,-1.22,0.00,0.10,0.24,0.00,2
0.05,-0.09,-1.24,2.99,-0.06,-1.10,0.00,0.09,0.00,0.00,2
0.04,-0.08,-1.23,3.30,0.12,-1.16,0.00,0.09,0.25,0.00,2
0.05,-0.08,-1.24,3.23,-0.06,-0.98,0.00,0.07,0.00,0.00,2
0.05,-0.08,-1.23,3.17,-0.06,-1.40,0.00,0.08,0.29,0.00,2
0.05,-0.09,-1.24,3.30,-0.49,-0.92,0.00,0.06,0.00,0.00,2
0.00,0.00,0.00,0.00,0.00,0.00,0.07,0.00,0.00,0.00,2
0.00,0.00,0.00,0.00,0.00,0.00,0.05,0.00,0.00,0.00,2
0.00,0.00,0.00,0.00,0.00,0.00,0.00,0.00,0.00,0.00,2
0.00,0.00,0.00,0.00,0.00,0.00,0.06,0.00,0.00,0.00,2
0.00,0.00,0.00,26.37,1.77,-7.75,0.00,0.00,0.00,0.00,2
0.17,-0.08,-10.03,21.79,0.55,-6.71,0.45,0.00,0.00,0.00,2
0.17,-0.13,-9.89,24.41,-2.62,-6.23,0.00,0.00,0.00,0.00,2
0.15,-0.12,-9.90,24.05,-11.17,-1.77,0.57,0.00,0.00,0.00,2
0.29,-0.05,-10.04,14.71,-12.76,5.07,0.00,0.00,0.00,0.00,2
0.30,-0.07,-9.99,17.27,3.36,-7.75,0.13,0.00,0.00,0.00,2
0.25,-0.07,-9.94,29.36,-6.29,-4.70,0.00,0.29,0.00,0.00,2
0.23,-0.07,-9.94,25.15,-1.34,-6.41,0.51,0.62,0.00,0.00,2
0.27,-0.14,-9.95,22.46,-3.60,-8.18,0.00,0.00,0.00,0.00,2
0.26,-0.09,-9.87,26.06,1.46,-5.55,0.26,0.00,0.31,0.00,2
0.22,-0.04,-9.95,22.40,1.71,-4.27,0.00,0.00,0.60,0.00,2
0.19,-0.05,-9.98,26.79,-7.32,-6.10,0.27,0.00,0.69,0.00,2
0.26,-0.06,-10.02,21.61,2.93,-8.54,0.00,0.00,0.00,0.00,2
0.28,-0.09,-9.92,21.48,0.61,-7.63,0.76,0.00,0.00,0.00,2
0.26,-0.07,-9.95,19.53,-2.14,-6.71,0.00,0.00,0.00,0.00,2
0.23,-0.08,-9.95,25.09,9.52,-5.43,0.77,0.00,0.00,0.00,2
0.25,-0.05,-10.05,10.68,26.49,-9.40,0.00,0.00,0.00,0.00,2
0.27,-0.10,-9.98,23.62,-4.94,-4.52,0.23,0.00,0.00,0.00,2
0.30,-0.08,-9.99,25.21,2.44,-5.37,0.00,0.00,0.00,0.00,2
0.24,-0.10,-9.95,24.29,2.01,-4.94,0.75,0.00,0.00,0.00,2
0.24,-0.08,-9.97,21.61,-0.24,-6.96,0.00,0.00,0.00,0.00,2
0.24,-0.08,-9.94,24.90,1.59,-6.29,0.19,0.00,0.00,0.00,2
0.23,-0.09,-9.97,20.87,-0.31,-7.14,0.00,0.00,0.00,0.00,2
0.28,-0.09,-9.99,25.51,0.43,-5.74,0.21,0.00,0.00,0.00,2
0.24,-0.11,-9.96,24.29,-1.34,-7.51,0.00,0.00,0.00,0.00,2
0.26,-0.09,-9.96,21.55,8.12,-9.46,0.21,0.00,0.00,0.00,2
0.12,-0.06,-9.86,42.72,-1.77,-2.56,0.00,0.00,0.00,0.00,2
0.31,-0.07,-9.93,24.84,-10.68,-5.37,0.28,0.00,0.00,0.00,2
0.30,-0.09,-9.86,29.54,-8.85,-5.13,0.00,0.00,0.00,0.00,2
0.38,-0.00,-10.12,14.89,2.87,-9.16,0.37,0.00,0.00,0.00,2
0.16,-0.06,-9.88,21.48,-29.72,-3.97,0.00,0.00,0.00,0.00,2
0.23,-0.07,-9.97,44.98,28.50,-8.00,0.25,0.00,0.00,0.00,2
0.28,-0.06,-10.01,22.03,-0.06,-4.15,0.00,0.00,0.00,0.00,2
0.25,-0.04,-10.06,24.84,-2.87,-6.96,0.34,0.00,0.00,0.00,2
0.27,-0.12,-9.99,23.32,0.18,-7.08,0.00,0.00,0.00,0.00,2
0.29,-0.06,-10.01,11.47,-2.50,-9.77,0.25,0.00,0.00,0.00,2
0.27,-0.09,-9.96,23.07,-1.46,-7.32,0.00,0.00,0.00,0.00,2
0.24,-0.04,-9.98,21.73,-0.18,-6.65,0.13,0.00,0.00,0.00,2
0.30,-0.08,-10.00,17.88,-8.00,-7.32,0.00,0.00,0.00,0.00,2
0.26,-0.07,-9.94,27.89,-3.11,-6.84,0.00,0.00,0.00,0.00,2
0.24,-0.16,-9.92,21.30,3.97,-7.69,0.00,0.00,0.00,0.00,2
0.23,-0.10,-9.95,14.53,5.92,-8.48,0.00,0.00,0.00,0.00,2
0.21,-0.08,-9.87,25.27,0.49,-5.98,0.00,0.00,0.00,0.00,2
0.19,-0.09,-9.97,25.51,-0.61,-4.94,0.00,0.00,0.00,0.00,2
0.22,-0.11,-9.94,24.54,-2.93,-8.06,0.00,0.00,0.00,0.00,2
0.22,-0.09,-9.96,24.60,-1.77,-6.77,0.00,0.00,0.00,0.00,2
0.22,-0.05,-9.95,22.09,-0.73,-6.90,0.00,0.00,0.00,0.00,2
0.26,-0.10,-9.97,25.88,-0.55,-5.43,0.00,0.00,0.00,0.00,2
0.22,-0.09,-9.94,26.92,-0.85,-5.62,0.00,0.00,0.00,0.00,2
0.20,-0.08,-9.94,23.44,0.37,-8.00,0.00,0.00,0.00,0.00,2
0.21,-0.09,-9.94,26.43,0.24,-6.10,0.00,0.00,0.00,0.00,2
0.20,-0.10,-9.97,25.76,0.37,-6.65,0.00,0.00,0.00,0.00,2
0.24,-0.10,-9.94,23.50,0.31,-6.90,0.00,0.00,0.00,0.00,2
0.24,-0.08,-9.97,25.94,-0.79,-8.24,0.00,0.00,0.00,0.00,2
0.44,-0.01,-9.96,88.87,-34.24,-5.86,0.00,0.00,0.00,0.00,2
0.69,0.00,-9.95,32.78,0.06,-3.30,0.44,0.00,0.00,0.00,2
0.66,0.07,-9.95,20.51,-17.70,-5.00,0.00,0.00,0.00,0.00,2
0.66,0.06,-9.92,18.55,8.36,-7.39,0.05,0.00,0.00,0.00,2
0.26,-0.05,-9.99,24.66,1.10,-6.84,0.00,0.00,0.00,0.00,2
0.19,-0.04,-9.93,24.90,-6.23,-5.92,0.08,0.00,0.00,0.00,2
0.23,-0.08,-9.95,29.79,7.26,-5.98,0.00,0.00,0.00,0.00,2
0.21,-0.02,-9.97,23.13,10.74,-6.71,0.48,0.00,0.00,0.00,2
0.27,-0.01,-10.03,26.31,-63.11,-1.83,0.00,0.00,0.00,0.00,2
0.19,-0.05,-9.99,23.13,-0.18,-6.90,0.00,0.00,0.00,0.00,2
0.21,-0.06,-9.96,22.71,-1.04,-8.00,0.00,0.00,0.00,0.00,2
0.18,-0.06,-9.94,17.76,-2.01,-7.69,0.28,0.00,0.00,0.00,2
0.23,-0.08,-9.98,27.77,16.42,-4.58,0.00,0.00,0.00,0.00,2
0.22,-0.04,-10.01,25.88,20.69,-7.57,0.08,0.00,0.00,0.00,2
0.19,-0.02,-9.94,22.52,-1.16,-6.90,0.00,0.00,0.00,0.00,2
0.18,-0.04,-9.94,23.32,-0.61,-4.33,0.00,0.00,0.00,0.00,2
0.15,-0.05,-9.94,24.84,3.42,-7.02,0.00,0.00,0.00,0.00,2
0.18,-0.07,-9.90,22.89,-2.69,-7.63,0.55,0.00,0.00,0.00,2
0.19,-0.05,-9.93,25.76,-3.30,-7.08,0.00,0.00,0.00,0.00,2
0.17,-0.08,-9.92,22.28,4.64,-6.96,0.00,0.00,0.00,0.00,2
0.20,-0.02,-10.05,20.08,2.75,-8.36,0.00,0.00,0.00,0.00,2
0.15,-0.01,-9.86,22.28,-14.47,-4.46,0.63,0.00,0.00,0.00,2
0.20,-0.05,-10.00,22.40,1.83,-7.14,0.00,0.00,0.00,0.00,2
0.21,-0.13,-9.93,21.00,49.99,-8.36,0.00,0.00,0.00,0.00,2
0.16,-0.06,-9.94,24.23,2.99,-6.71,0.00,0.00,0.00,0.00,2
0.18,-0.05,-9.90,23.32,-2.08,-5.55,0.00,0.00,0.00,0.00,2
0.23,-0.09,-9.94,24.41,-3.11,-6.96,0.00,0.30,0.00,0.00,2
0.17,-0.06,-9.95,25.33,-0.06,-5.13,0.19,0.33,0.00,0.00,2
0.16,-0.01,-9.94,23.32,-1.89,-5.62,0.00,0.29,0.19,0.00,2
0.16,-0.06,-9.96,24.96,0.85,-6.16,0.69,0.27,0.30,0.00,2
0.17,-0.05,-10.01,21.18,0.12,-4.82,0.00,0.24,0.23,0.00,2
0.14,-0.06,-9.94,14.65,-19.23,-4.52,0.66,0.24,0.27,0.00,2
0.15,-0.07,-9.96,25.39,-0.73,-5.55,0.00,0.23,0.27,0.00,2
0.17,-0.09,-9.90,22.03,-0.31,-6.71,0.70,0.22,0.27,0.00,2
0.16,-0.08,-9.94,25.88,0.31,-4.46,0.00,0.22,0.27,0.00,2
0.18,-0.01,-9.95,24.78,3.91,-7.51,0.70,0.12,0.12,0.00,2
0.16,-0.07,-9.91,25.02,0.61,-5.49,0.00,0.00,0.00,0.00,2
0.17,-0.05,-10.00,23.80,1.65,-5.86,0.09,0.00,0.00,0.00,2
0.17,-0.05,-9.97,22.58,-1.04,-6.29,0.00,0.00,0.00,0.00,2
0.17,-0.06,-10.02,24.11,4.03,-5.92,0.10,0.00,0.00,0.00,2
0.14,-0.06,-9.94,23.25,-1.40,-7.02,0.00,0.00,0.00,0.00,2
0.13,-0.06,-9.98,21.97,-0.18,-4.88,0.19,0.00,0.00,0.00,2
0.13,-0.05,-9.97,22.95,-3.11,-5.25,0.00,0.36,0.35,0.00,2
0.17,-0.06,-9.99,21.06,-0.37,-5.80,0.26,0.43,0.44,0.00,2
0.17,-0.05,-9.87,23.13,0.85,-6.16,0.00,0.45,0.52,0.00,2
0.15,-0.06,-9.90,23.13,-0.06,-7.26,0.27,0.39,0.49,0.00,2
0.23,-0.02,-10.09,30.03,-3.60,-3.42,0.05,0.00,0.00,0.00,2
0.16,-0.08,-10.00,23.25,-1.83,-4.70,0.00,0.00,0.00,0.00,2
0.19,-0.09,-9.99,23.01,5.98,-7.32,0.00,0.00,0.00,0.00,2
0.20,-0.05,-9.96,21.36,-4.21,-6.10,0.00,0.00,0.00,0.00,2
0.16,-0.08,-9.94,24.48,-1.04,-6.35,0.00,0.00,0.00,0.00,2
0.13,-0.05,-9.96,20.69,16.48,-8.61,0.14,0.00,0.00,0.00,2
0.16,-0.04,-9.95,30.88,0.92,-4.76,0.00,0.00,0.00,0.00,2
0.19,-0.04,-9.95,22.64,-1.95,-5.86,0.61,0.00,0.00,0.00,2
0.17,-0.03,-10.03,23.56,12.82,-8.12,0.00,0.00,0.00,0.00,2
0.16,-0.07,-9.81,28.56,1.04,-6.10,0.00,0.00,0.00,0.00,2
0.14,-0.02,-9.96,22.22,1.89,-5.31,0.00,0.00,0.00,0.00,2
0.14,-0.04,-9.92,24.05,-2.87,-5.98,0.00,0.00,0.00,0.00,2
0.34,-0.04,-10.18,25.76,18.37,-6.23,0.00,0.00,0.00,0.00,2
0.19,-0.05,-9.97,27.28,-23.56,-7.39,0.27,0.00,0.00,0.00,2
0.13,-0.06,-9.91,25.63,-2.81,-5.86,0.00,0.00,0.00,0.00,2
0.15,-0.01,-9.98,23.32,10.56,-4.70,0.25,0.00,0.00,0.00,2
0.12,-0.11,-9.90,23.13,1.10,-6.10,0.00,0.00,0.00,0.00,2
0.11,-0.03,-9.95,21.48,1.40,-6.47,0.00,0.00,0.00,0.00,2
-0.03,-0.06,-9.77,-2.75,40.10,-17.94,0.00,0.00,0.00,0.00,2
0.12,-0.08,-9.88,28.63,2.93,-4.33,0.17,0.00,0.00,0.00,2
0.45,-0.20,-10.20,-63.84,44.43,17.27,0.00,0.00,0.00,0.00,2
0.46,0.03,-10.10,162.72,-253.30,323.61,0.12,0.00,0.00,0.00,2
1.42,-0.49,-10.11,190.98,8.85,104.92,0.00,0.00,0.00,0.00,2
1.58,-0.91,-9.75,-214.36,-37.17,-58.72,0.18,0.00,0.00,0.00,2
1.68,-0.26,-9.67,342.41,324.40,-6.71,0.00,0.00,0.00,0.00,2
-1.92,0.80,-10.13,-5.37,-119.20,-270.20,0.08,0.00,0.00,0.00,2
-0.59,0.57,-9.88,42.97,-16.05,-13.24,0.00,0.00,0.00,0.00,2
-0.44,1.79,-9.80,28.87,10.62,-43.88,7.50,0.00,0.00,0.00,2
-0.29,1.96,-9.78,-0.73,14.83,81.67,0.00,0.00,0.00,0.00,2
-0.15,2.01,-9.74,28.20,-8.18,155.40,0.09,0.00,0.00,0.00,2
-0.63,1.66,-9.83,55.30,-23.74,-42.30,0.00,0.00,0.00,0.00,2
-1.04,1.47,-9.94,-5.55,60.42,20.75,0.00,0.00,0.00,0.00,2
-1.26,1.53,-9.81,37.78,-10.80,-82.76,0.00,0.00,0.00,0.00,2
-1.22,1.56,-9.75,54.08,-40.65,-137.88,0.00,0.00,0.00,0.00,2
-1.44,1.27,-9.77,49.44,-35.16,-0.18,0.00,0.00,0.00,0.00,2
-1.37,1.36,-9.76,34.00,-15.14,-6.29,0.00,0.00,0.00,0.00,2
-1.37,1.34,-9.80,29.24,-12.63,3.11,0.00,0.00,0.00,0.00,2
-1.33,1.34,-9.80,25.33,-4.88,-4.09,0.11,0.00,0.00,0.00,2
-1.34,1.38,-9.81,26.06,-3.36,-4.94,0.00,0.00,0.00,0.00,2
-1.41,1.30,-9.80,35.10,-16.91,-4.46,0.11,0.00,0.00,0.00,2
-1.32,1.39,-9.82,21.00,2.50,-4.52,0.00,0.00,0.00,0.00,2
-1.42,1.31,-9.77,22.09,-1.22,-4.58,0.00,0.00,0.00,0.00,2
-1.44,1.31,-9.81,20.20,3.54,-5.55,0.00,0.00,0.00,0.00,2
-1.37,1.27,-9.83,17.52,9.28,-5.25,0.08,0.00,0.00,0.00,2
-1.35,1.25,-9.83,35.58,-14.16,-4.94,0.00,0.00,0.00,0.00,2
-1.47,1.28,-9.84,21.24,1.22,-5.62,0.00,0.00,0.00,0.00,2
-1.48,1.25,-9.83,30.70,-9.22,-7.69,0.00,0.00,0.00,0.00,2
-1.46,1.23,-9.79,17.88,4.76,-2.69,0.05,0.00,0.00,0.00,2
-1.45,1.24,-9.80,21.55,-2.08,-5.86,0.00,0.00,0.00,0.00,2
-1.47,1.23,-9.75,21.91,3.60,-4.21,0.06,0.00,0.00,0.00,2
-1.48,1.24,-9.74,21.42,-0.43,-2.50,0.00,0.00,0.00,0.00,2
-1.45,1.23,-9.77,24.84,5.25,0.31,0.00,0.00,0.00,0.00,2
-1.46,1.21,-9.74,28.26,-4.76,-6.53,0.00,0.00,0.25,0.00,2
-1.46,1.22,-9.84,27.10,0.37,-5.19,0.13,0.00,0.32,0.00,2
-1.52,1.23,-9.86,28.99,-6.65,-4.46,0.00,0.00,0.21,0.00,2
-1.45,1.18,-9.84,21.48,1.40,-6.53,0.00,0.22,0.00,0.00,2
-1.46,1.22,-9.78,22.71,-0.31,-5.13,0.00,0.39,0.00,0.00,2
-1.48,1.22,-9.79,25.57,0.49,-4.94,0.00,0.40,0.00,0.00,2
-1.42,1.26,-9.83,21.79,5.68,-5.80,0.00,0.00,0.00,0.00,2
-1.39,1.31,-9.88,26.73,1.40,-3.36,0.00,0.00,0.00,0.00,2
-1.42,1.26,-9.83,22.03,5.86,-2.62,0.00,0.00,0.00,0.00,2
-1.47,1.18,-9.80,11.41,20.08,-2.81,0.00,0.00,0.00,0.00,2
-1.42,1.23,-9.84,32.35,-12.08,-32.84,0.00,0.00,0.00,0.00,2
-1.33,1.29,-9.84,38.57,-21.12,-6.77,0.00,0.00,0.00,0.00,2
-1.34,1.31,-9.83,17.82,5.49,9.83,0.00,0.00,0.00,0.00,2
-1.41,1.23,-9.80,4.76,22.28,20.57,0.00,0.00,0.00,0.00,2
0.00,0.00,0.00,0.00,0.00,0.00,0.00,0.00,0.00,0.00,2
0.00,0.00,0.00,0.00,0.00,0.00,0.00,0.00,0.00,0.00,2
0.00,0.00,0.00,0.00,0.00,0.00,0.00,0.00,0.00,0.00,2
0.00,0.00,0.00,0.00,0.00,0.00,0.00,0.00,0.00,0.00,2
0.00,0.00,0.00,0.00,0.00,0.00,0.05,0.00,0.00,0.00,2
0.00,0.00,0.00,0.00,0.00,0.00,0.00,0.00,0.00,0.00,2
0.04,0.25,-9.96,23.80,0.49,-3.66,0.00,0.00,0.00,0.00,2
0.04,0.28,-9.96,23.68,1.34,-3.85,0.00,0.00,0.00,0.00,2
0.07,0.28,-9.99,21.18,-0.67,-5.80,0.00,0.00,0.00,0.00,2
0.14,0.26,-9.94,26.67,-2.38,-1.59,0.00,0.00,0.00,0.00,2
-0.01,0.27,-10.03,16.60,-3.66,-0.55,0.00,0.00,0.00,0.00,2
0.05,0.23,-9.86,34.36,19.10,-3.54,0.00,0.00,0.00,0.00,2
0.20,0.21,-9.98,47.73,27.04,-5.68,0.00,0.00,0.00,0.00,2
0.04,0.30,-10.05,28.26,-7.26,-4.94,0.00,0.00,0.00,0.00,2
0.28,0.27,-10.02,-1.89,4.46,-4.27,0.00,0.00,0.00,0.00,2
0.29,0.06,-9.86,-1.28,-7.39,1.34,0.00,0.00,0.00,0.00,2
0.19,0.55,-10.29,18.31,-8.73,-10.13,0.00,0.00,0.00,0.00,2
0.04,0.05,-9.77,25.82,-20.75,-12.70,0.00,0.00,0.00,0.00,2
0.17,-0.03,-9.88,54.08,-42.72,-8.73,0.00,0.00,0.00,0.00,2
0.07,0.29,-9.92,26.49,-21.42,-4.88,0.00,0.00,0.00,0.00,2
0.35,0.16,-9.71,-51.70,21.00,-4.88,0.00,0.00,0.00,0.00,2
-0.20,-0.14,-10.13,28.08,5.62,-9.03,0.00,0.00,0.00,0.00,2
0.02,0.63,-9.96,9.03,9.03,-5.00,0.00,0.00,0.00,0.00,2
0.14,0.17,-10.04,72.14,0.92,-11.05,0.00,0.00,0.00,0.00,2
0.07,0.43,-10.03,109.56,3.05,47.61,0.00,0.00,0.00,0.00,2
0.03,0.21,-10.21,45.84,-50.23,-3.72,0.00,0.00,0.00,0.00,2
0.32,0.46,-9.87,147.64,108.34,-51.51,0.00,0.00,0.00,0.00,2
-0.05,-0.02,-9.99,24.17,32.04,59.20,0.00,0.00,0.00,0.00,2
-0.84,0.25,-10.25,9.58,-55.66,-8.30,0.00,0.00,0.00,0.00,2
1.05,1.09,-8.64,58.23,-21.36,-77.09,0.05,0.00,0.00,0.00,2
0.09,-0.45,-9.88,-35.58,-67.81,61.89,0.00,0.00,0.00,0.00,2
0.96,2.96,-9.09,19.41,-38.88,96.07,0.00,0.00,0.00,0.00,2
-0.21,-0.19,-9.84,28.14,-34.30,10.25,0.00,0.00,0.00,0.00,2
-0.19,-0.00,-9.74,-17.15,58.96,-1.04,0.00,0.00,0.00,0.00,2
3.12,-2.31,-7.32,143.13,-233.15,-52.49,0.00,0.00,0.00,0.00,2
-0.56,-0.48,-10.83,63.23,-10.68,-55.79,0.00,0.00,0.00,0.00,2
0.78,1.05,-9.13,523.62,163.94,-94.67,0.00,0.00,0.00,0.00,2
0.67,1.92,-9.43,-57.80,69.34,-57.68,0.00,0.00,0.00,0.00,2
-2.19,1.93,-9.54,499.82,103.21,-267.52,0.00,0.00,0.00,0.00,2
-0.94,3.60,-10.12,-183.72,336.85,-37.29,0.00,0.00,0.00,0.00,2
1.00,-0.91,-8.81,-44.98,-144.71,268.62,0.00,0.00,0.00,0.00,2
-0.43,-2.10,-9.25,-312.38,-446.35,-137.27,0.00,0.00,0.00,0.00,2
4.04,-1.49,-9.01,312.99,-498.54,-496.77,0.00,0.00,0.00,0.00,2
3.71,-5.09,-7.03,-394.47,-405.94,-327.51,0.00,0.00,0.00,0.00,2
3.67,0.68,-8.62,958.31,-160.83,322.57,0.00,0.00,0.00,0.00,2
2.45,6.09,-6.57,736.27,-347.84,442.14,0.00,0.00,0.00,0.00,2
1.26,6.38,-4.76,-88.75,-497.68,322.08,0.00,0.00,0.00,0.00,2
1.46,8.14,-5.20,-143.19,-374.69,369.32,0.00,0.00,0.00,0.00,2
0.34,7.28,-5.23,-230.65,-621.83,-16.78,0.00,0.00,0.00,0.00,2
2.07,6.62,-5.26,-0.18,147.46,93.57,0.00,0.00,0.00,0.00,2
1.85,6.70,-4.52,-40.95,188.05,-131.16,0.00,0.00,0.00,0.00,2
1.51,7.08,-5.75,-14.34,-109.07,-26.92,0.00,0.00,0.00,0.00,2
1.38,7.52,-5.58,6.16,-247.92,345.34,0.00,0.00,0.00,0.00,2
-1.87,6.71,-6.26,-10.74,-553.10,286.93,0.00,0.00,0.00,0.00,2
-2.08,6.48,-3.94,7.20,137.82,-86.67,0.00,0.00,0.00,0.00,2
-0.27,7.36,-5.41,103.94,19.65,-127.50,0.00,0.00,0.00,0.00,2
-0.52,7.79,-5.36,-0.12,188.60,22.40,0.00,0.00,0.00,0.00,2
-1.02,7.43,-5.15,129.88,95.58,-153.87,0.00,0.00,0.00,0.00,2
-0.83,7.53,-5.49,-34.12,8.91,-61.10,0.00,0.00,0.00,0.00,2
-1.28,7.29,-5.21,10.38,80.26,-1.16,0.00,0.00,0.00,0.00,2
-1.39,7.45,-5.00,39.73,-8.18,42.24,0.00,0.00,0.00,0.00,2
-1.32,7.79,-5.02,120.06,-109.68,-142.33,0.00,0.00,0.00,0.00,2
0.33,7.84,-2.63,162.84,-48.65,-124.51,0.00,0.00,0.00,0.00,2
0.63,8.11,-3.63,89.29,50.11,-126.89,0.00,0.00,0.00,0.00,2
-0.26,8.30,-3.44,63.42,-12.88,-264.16,0.00,0.00,0.00,0.00,2
0.70,7.67,-4.53,-40.71,58.90,22.83,0.00,0.00,0.00,0.00,2
0.68,7.58,-4.01,-27.71,17.15,48.58,0.00,0.00,0.00,0.00,2
1.10,7.77,-3.94,-3.66,-30.94,-12.27,0.00,0.00,0.00,0.00,2
0.74,6.94,-4.33,-131.23,-38.39,137.51,0.00,0.00,0.00,0.00,2
1.31,7.59,-3.71,60.36,-71.35,-159.55,0.00,0.00,0.00,0.00,2
2.22,7.37,-4.24,24.72,-94.12,34.24,0.00,0.00,0.00,0.00,2
1.53,7.56,-4.54,61.46,23.80,23.74,0.00,0.00,0.00,0.00,2
1.52,7.71,-4.02,-19.84,-77.45,90.15,0.00,0.00,0.00,0.00,2
0.56,7.82,-4.21,199.89,308.96,-132.39,0.00,0.00,0.00,0.00,2
-0.17,8.50,-3.53,93.51,278.26,20.87,0.00,0.00,0.00,0.00,2
1.35,8.23,-0.93,155.52,250.24,-128.30,0.00,0.00,0.00,0.00,2
-0.89,8.46,2.15,-5.25,187.44,-246.77,0.00,0.00,0.00,0.00,2
-1.33,7.74,0.37,-54.02,227.66,163.88,0.00,0.00,0.00,0.00,2
-1.04,7.19,0.56,125.73,136.11,-134.64,0.00,0.00,0.00,0.00,2
-0.24,7.96,0.22,32.59,-194.52,-37.72,0.00,0.00,0.00,0.00,2
1.07,7.28,2.14,-16.54,-246.40,138.49,0.00,0.00,0.00,0.00,2
2.19,6.75,2.73,129.21,608.40,-346.37,0.00,0.00,0.00,0.00,2
1.17,6.11,2.34,189.45,951.23,86.36,0.00,0.00,0.00,0.00,2
4.10,6.24,1.74,-48.22,-537.11,-42.97,0.00,0.00,0.00,0.00,2
2.39,6.13,2.25,40.77,76.23,-0.43,0.00,0.00,0.00,0.00,2
3.27,6.69,1.77,39.67,104.98,22.09,0.00,0.00,0.00,0.00,2
2.21,6.53,1.79,138.73,-214.54,-117.68,0.00,0.00,0.00,0.00,2
2.26,6.62,2.40,36.19,74.71,-85.94,0.00,0.00,0.00,0.00,2
0.59,6.66,2.51,-22.89,-402.71,-81.60,0.00,0.00,0.00,0.00,2
2.44,6.83,2.96,36.19,172.61,-62.99,0.00,0.00,0.00,0.00,2
0.36,6.70,2.65,24.84,1.77,-4.52,0.00,0.00,0.00,0.00,2
1.67,6.26,2.66,32.04,68.36,-78.19,0.00,0.00,0.00,0.00,2
2.86,6.00,1.97,10.86,-107.85,-56.64,0.00,0.00,0.00,0.00,2
1.69,6.38,2.83,57.01,377.87,-33.45,0.00,0.00,0.00,0.00,2
1.82,6.22,2.27,7.14,-3.36,-11.78,0.00,0.00,0.00,0.00,2
0.82,6.39,2.43,49.87,26.06,152.22,0.00,0.00,0.00,0.00,2
1.42,6.32,2.63,1.40,-149.60,-26.86,0.00,0.00,0.00,0.00,2
1.27,6.34,2.04,31.19,539.98,-173.40,0.00,0.00,0.00,0.00,2
-0.17,6.46,-0.12,-512.08,-106.20,86.36,0.00,0.00,0.00,0.00,2
0.34,8.44,-3.67,-495.30,636.66,-625.92,0.00,0.00,0.00,0.00,2
-1.52,7.17,-4.77,181.46,137.33,-133.97,0.00,0.00,0.00,0.00,2
-2.32,7.05,-2.74,24.05,-384.03,98.88,0.00,0.07,0.08,0.00,2
-1.49,7.63,-3.46,13.79,25.82,-37.66,0.00,0.22,0.39,0.00,2
-2.00,7.54,-3.73,-65.61,-75.62,76.78,0.00,0.18,0.41,0.00,2
-2.74,6.83,-1.81,267.27,-884.70,-64.76,0.00,0.00,0.00,0.00,2
-2.00,7.06,-1.50,18.01,119.57,-53.04,0.00,0.10,0.17,0.00,2
-2.57,7.50,-3.98,-113.46,-136.60,118.04,0.00,0.17,0.71,0.00,2
-2.53,8.05,-2.93,77.76,-14.22,-30.70,0.00,0.24,0.43,0.00,2
-1.54,7.90,-2.65,12.21,-5.00,-23.44,0.00,0.22,0.39,0.00,2
-1.62,7.55,-4.65,-384.89,243.53,209.72,0.00,0.17,0.18,0.00,2
-5.06,6.32,-4.28,-64.58,916.08,-471.01,0.00,0.00,0.00,0.00,2
0.63,7.94,-2.94,1.77,-264.04,130.86,0.00,0.00,0.00,0.00,2
0.37,8.34,-2.83,-64.82,413.33,-151.00,0.00,0.00,0.00,0.00,2
-0.69,7.91,-3.03,63.96,-17.03,-6.23,0.00,0.16,0.00,0.00,2
0.21,8.47,-2.63,-15.44,-11.72,-9.40,0.00,0.08,0.00,0.00,2
-0.48,8.06,-3.11,27.28,-93.51,-105.35,0.00,0.00,0.00,0.00,2
0.68,7.61,-2.96,36.56,77.94,-6.65,0.00,0.00,0.00,0.00,2
1.39,7.62,-2.78,54.44,32.23,-24.78,0.00,0.00,0.00,0.00,2
-2.37,7.92,-3.74,276.61,-124.69,-129.58,0.00,0.00,0.00,0.00,2
-1.75,7.79,-2.52,8.97,-138.18,67.26,0.00,0.00,0.13,0.00,2
-1.43,7.93,-2.57,29.60,110.17,-34.91,0.00,0.00,0.16,0.00,2
0.81,8.66,-3.30,-7.57,450.07,-70.56,0.00,0.00,0.00,0.00,2
-0.89,8.16,-2.58,-16.17,73.73,-40.95,0.00,0.00,0.00,0.00,2
-1.08,9.20,-3.88,-266.78,97.17,192.50,0.00,0.00,0.00,0.00,2
-0.26,4.57,-4.30,348.14,-867.61,-578.06,0.00,0.00,0.00,0.00,2
1.90,6.93,-5.80,31.19,-181.15,85.08,0.00,0.00,0.00,0.00,2
1.37,7.01,-5.60,31.92,75.38,-25.33,0.00,0.00,0.00,0.00,2
1.23,6.90,-5.54,37.23,-4.88,14.83,0.00,0.00,0.00,0.00,2
1.20,7.16,-5.41,-38.21,-26.67,-19.35,0.00,0.00,0.00,0.00,2
-0.00,3.79,-4.97,35.64,-569.95,-114.14,0.00,0.00,0.00,0.00,2
-2.81,10.72,-3.29,192.75,135.62,-446.78,0.00,0.00,0.00,0.00,2
-0.51,8.03,-1.96,-5.62,30.82,65.73,0.00,0.00,0.00,0.00,2
-2.10,8.04,-2.23,-48.65,-13.55,64.51,0.00,0.16,0.28,0.00,2
-3.19,7.92,-3.63,137.21,-17.64,-78.49,0.00,0.35,0.68,0.00,2
-0.83,7.92,-2.21,94.12,134.77,-84.11,0.00,0.00,0.00,0.00,2
-0.93,8.09,-1.37,27.83,4.33,28.02,0.00,0.00,0.00,0.00,2
-1.28,8.19,-1.51,-8.00,-205.57,89.90,0.00,0.00,0.00,0.00,2
-2.51,8.00,-3.36,26.25,-135.80,13.73,0.00,0.11,0.29,0.00,2
-1.69,7.94,-2.65,66.89,-29.91,-52.61,0.00,0.00,0.27,0.00,2
-1.99,7.94,-2.88,20.45,132.69,-7.26,0.00,0.00,0.32,0.00,2
-1.46,8.30,-2.25,122.07,24.05,-95.76,0.00,0.05,0.12,0.00,2
-0.39,8.06,-1.24,38.82,3.97,-15.63,0.00,0.00,0.00,0.00,2
-1.42,8.14,-1.75,49.26,-129.21,75.93,0.00,0.00,0.00,0.00,2
-1.55,7.89,-2.24,-86.55,-112.18,198.24,0.00,0.00,0.10,0.00,2
-2.18,7.70,-2.78,23.01,-7.02,-13.18,0.00,0.24,0.46,0.00,2
-1.12,7.91,-2.04,73.24,1.59,-95.34,0.00,0.05,0.07,0.00,2
-1.47,7.64,-2.07,-92.65,3.60,74.10,0.00,0.00,0.08,0.00,2
-3.57,5.42,-7.20,161.87,-1188.78,525.45,0.00,0.00,0.00,0.00,2
-0.21,7.81,-4.27,98.88,-76.23,-227.36,0.00,0.00,0.00,0.00,2
0.01,7.61,-1.16,1082.03,482.97,-777.95,0.00,0.00,0.00,0.00,2
-2.15,9.30,3.74,255.43,-1232.73,60.67,0.00,0.00,0.00,0.00,2
-3.81,3.75,3.66,67.26,-114.62,120.30,0.00,0.00,0.00,0.00,2
-3.02,3.40,4.59,73.55,595.52,-63.11,0.00,0.00,0.00,0.00,2
