accelX,accelY,accelZ,gyroX,gyroY,gyroZ,fsr1,fsr2,fsr3,fsr4,label
-0.17,-0.01,-1.24,-3.17,0.92,4.76,0.00,0.46,0.00,1.53,2
-0.17,-0.01,-1.22,2.56,-0.37,0.55,0.00,0.46,0.00,0.07,2
-0.17,-0.01,-1.24,4.94,0.49,-3.72,0.00,0.47,0.00,0.00,2
-0.17,0.04,-1.28,16.11,-1.46,-10.07,0.00,0.47,0.00,0.00,2
-0.13,-0.04,-1.20,23.74,11.05,-11.11,0.00,0.48,0.00,0.00,2
-0.28,0.20,-1.17,-24.96,1.53,-16.11,0.00,0.49,0.00,0.00,2
-0.25,0.09,-1.20,-4.64,-21.24,-7.51,0.00,0.50,0.00,0.00,2
-0.35,0.10,-1.22,-33.33,7.51,7.45,0.00,0.50,0.00,0.00,2
-0.54,0.12,-0.96,-11.84,10.93,6.10,0.00,0.50,0.00,0.00,2
-0.49,0.23,-0.83,-7.14,13.79,2.20,0.00,0.50,0.00,0.00,2
-0.71,-0.08,-0.65,2.32,17.09,41.99,0.00,0.50,0.00,0.00,2
-0.91,0.74,-1.38,-24.11,14.34,5.92,0.00,0.45,0.00,0.00,2
-0.99,0.10,-1.05,-56.70,-31.01,-11.29,0.00,0.47,0.00,0.00,2
-0.97,0.10,-1.25,58.41,7.08,-158.08,0.00,0.48,0.00,0.00,2
-0.77,-0.17,-1.25,-9.34,-22.34,-26.06,0.00,0.49,0.00,0.00,2
-1.05,0.04,-0.62,-72.63,72.57,-36.38,0.00,0.49,0.00,0.00,2
-0.91,-0.58,-0.25,5.62,-27.95,71.11,0.00,0.50,0.00,0.00,2
-0.96,-0.59,0.14,-40.28,48.95,-0.49,0.00,0.49,0.00,0.00,2
-0.79,-0.20,0.44,1.46,-4.39,13.85,0.00,0.50,0.00,0.00,2
-0.64,0.04,0.41,34.85,3.60,-5.98,0.00,0.51,0.00,0.00,2
-0.77,-0.29,0.51,17.88,1.16,-3.17,0.00,0.50,0.00,0.00,2
-0.77,-0.23,0.48,-20.08,-1.71,4.46,0.00,0.50,0.00,0.00,2
-0.72,-0.05,0.52,15.93,3.05,-5.31,0.00,0.50,0.00,0.00,2
-0.69,-0.40,0.40,-1.28,-3.48,21.73,0.00,0.51,0.00,0.00,2
-0.75,-0.09,0.47,25.76,4.33,5.55,0.00,0.50,0.00,0.00,2
-0.69,-0.22,0.42,-44.43,-7.81,4.15,0.00,0.51,0.00,0.00,2
-0.72,-0.26,0.48,30.33,5.00,-0.73,0.00,0.51,0.00,0.00,2
-0.71,-0.28,0.43,-12.27,-1.89,-3.05,0.00,0.51,0.00,0.00,2
-0.68,-0.29,0.33,14.71,2.93,0.37,0.00,0.51,0.00,0.00,2
-0.66,-0.33,0.41,-15.93,-4.94,5.86,0.00,0.51,0.00,0.00,2
-0.74,-0.25,0.45,-15.93,-1.89,-1.28,0.00,0.51,0.00,0.00,2
-0.71,-0.26,0.45,8.91,0.73,-1.10,0.00,0.51,0.00,0.00,2
-0.74,-0.32,0.43,-5.31,-8.06,3.42,0.00,0.51,0.00,0.00,2
-0.77,-0.18,0.46,18.92,3.36,-2.50,0.00,0.51,0.00,0.00,2
-0.75,-0.21,0.25,-51.45,-20.39,-12.76,0.00,0.45,0.00,0.00,2
-0.48,-0.07,0.36,26.73,-67.02,-69.64,0.00,0.00,0.00,0.00,2
-1.14,0.20,-0.50,17.58,-32.17,-8.42,0.00,0.00,0.00,0.00,2
-0.97,0.00,-0.57,27.34,9.16,21.18,0.00,0.66,0.00,0.00,2
-0.99,-0.25,-0.46,28.69,46.26,16.11,0.00,0.81,0.40,0.00,2
-0.82,-0.29,-0.62,-28.20,-44.19,8.30,0.00,0.11,0.72,0.00,2
-0.94,0.31,-0.71,151.43,142.03,50.66,0.00,0.00,0.00,0.00,2
-1.04,-0.26,-0.27,9.09,-12.94,1.65,0.00,0.69,0.64,0.00,2
-0.98,-0.25,-0.34,-0.67,-2.81,-1.10,0.00,0.58,0.77,0.00,2
-0.99,-0.23,-0.35,10.50,-1.28,-1.89,0.00,0.45,0.68,0.00,2
-1.16,-0.08,-0.25,-65.37,-2.32,-20.20,0.00,0.37,0.32,0.00,2
-1.02,-0.25,-0.32,12.02,0.18,-4.76,0.00,0.84,0.41,0.00,2
-1.01,-0.28,-0.35,1.10,-1.83,0.31,0.00,0.79,0.50,0.00,2
-0.99,-0.25,-0.32,2.50,-0.24,-0.18,0.00,0.77,0.55,0.00,2
-0.99,-0.24,-0.35,-1.46,-4.09,-1.10,0.00,0.71,0.64,0.00,2
-0.95,-0.23,-0.60,28.20,-23.07,3.48,0.00,0.00,0.93,0.00,2
-0.96,0.14,-0.67,29.60,205.75,18.25,0.00,0.00,0.00,0.00,2
-1.14,-0.09,-0.16,-63.90,-34.42,-0.85,0.00,0.96,0.00,0.00,2
-1.01,-0.21,-0.41,-0.49,-27.22,-4.39,0.00,0.51,0.54,0.00,2
-0.92,-0.08,-0.67,39.92,-46.57,-4.39,0.00,0.00,0.11,0.00,2
-0.80,0.14,-0.86,42.05,16.60,24.41,0.00,0.00,0.00,0.00,2
-1.02,0.18,-0.48,-107.30,40.65,17.88,0.00,0.25,0.38,0.00,2
-1.00,-0.20,-0.29,-21.73,2.69,-5.49,0.00,0.87,0.42,0.00,2
-1.03,-0.14,-0.00,-16.54,39.31,-11.17,0.00,0.89,0.00,0.00,2
-1.07,-0.24,-0.40,165.22,6.53,-45.17,0.00,0.00,0.00,0.00,2
-1.14,0.09,-0.27,-46.63,-14.77,8.61,0.00,0.78,0.13,0.00,2
-0.98,-0.28,-0.61,96.74,-17.52,39.06,0.00,0.00,0.00,0.00,2
-0.92,-0.25,-0.49,-17.40,-4.70,-16.78,0.00,0.45,0.52,0.00,2
-0.62,-0.44,-0.43,-70.68,-23.38,124.57,0.00,0.42,0.00,0.00,2
-1.52,0.05,-0.57,21.61,20.32,-28.93,0.00,0.00,0.00,0.00,2
-0.62,0.03,0.33,-32.23,61.34,91.74,0.00,0.00,0.00,0.00,2
-0.50,-0.37,0.28,24.60,-19.04,2.26,0.00,0.00,0.00,0.00,2
-0.68,-0.41,0.42,5.49,1.53,-1.04,0.00,0.27,0.00,0.00,2
-0.76,-0.35,0.44,-24.05,-7.87,-2.38,0.00,0.29,0.00,0.00,2
-0.65,-0.39,0.40,-23.74,-8.00,-2.99,0.00,0.29,0.00,0.00,2
-0.78,-0.30,0.43,14.59,10.19,-2.75,0.00,0.31,0.00,0.00,2
-0.79,-0.31,0.43,18.07,6.53,-6.90,0.00,0.31,0.00,0.00,2
-0.80,-0.29,0.40,47.06,19.47,-18.92,0.00,0.31,0.00,0.00,2
-0.77,-0.59,0.31,-8.30,-12.51,-0.85,0.00,0.31,0.00,0.00,2
-1.09,-0.00,-0.57,-111.39,19.59,-65.67,0.00,0.41,0.00,0.00,2
-1.03,0.31,-0.60,-40.71,-12.82,-69.21,0.00,0.51,0.00,0.00,2
-0.25,0.04,-1.25,-55.48,-61.10,21.85,0.00,0.44,0.00,0.00,2
-0.34,0.17,-1.10,30.09,36.13,29.85,0.00,0.00,0.00,0.00,2
-0.41,0.25,-1.12,5.55,23.07,28.69,0.00,0.00,0.00,0.00,2
-0.29,0.15,-1.10,-67.57,-53.65,-56.88,0.00,0.00,0.00,0.00,2
-0.09,-0.15,-1.15,5.55,39.79,19.78,0.00,0.00,0.00,0.00,2
0.05,0.02,-1.45,-84.90,36.99,-34.12,0.00,0.00,0.00,0.00,2
-0.04,-0.08,-1.27,2.87,0.79,-0.73,0.00,0.00,0.00,0.00,2
-0.02,-0.09,-1.24,3.11,0.73,-0.85,0.00,0.00,0.00,0.00,2
-0.04,-0.09,-1.25,2.69,-0.61,-0.55,0.00,0.00,0.00,0.00,2
-0.03,-0.08,-1.24,3.54,1.04,-0.85,0.00,0.00,0.00,0.00,2
-0.04,-0.08,-1.26,2.81,0.00,-0.61,0.00,0.00,0.00,0.00,2
-0.06,-0.06,-1.24,3.85,1.16,0.73,0.00,0.00,0.00,0.00,2
-0.03,-0.08,-1.22,6.65,5.92,-0.61,0.00,0.00,0.00,0.00,2
-0.06,-0.06,-1.23,3.11,0.85,2.93,0.00,0.00,0.00,0.00,2
-0.02,-0.09,-1.23,3.48,0.73,-1.04,0.00,0.00,0.00,0.00,2
-0.04,-0.08,-1.22,3.48,1.34,-1.16,0.00,0.00,0.00,0.00,2
-0.03,-0.08,-1.21,2.99,-0.67,-0.61,0.00,0.00,0.00,0.00,2
-0.04,-0.07,-1.24,2.87,0.00,-0.67,0.00,0.72,0.00,0.00,2
-0.04,-0.07,-1.25,3.05,0.61,-0.79,0.00,0.79,0.00,0.00,2
-0.04,-0.08,-1.24,2.99,0.00,-0.37,0.00,0.00,0.00,0.00,2
-0.05,-0.08,-1.23,2.99,0.12,-0.49,0.00,0.00,0.00,0.00,2
-0.05,-0.08,-1.24,2.50,-0.24,-0.61,0.00,0.00,0.00,0.00,2
-0.04,-0.07,-1.24,2.62,0.06,-0.79,0.00,0.00,0.00,0.00,2
-0.05,-0.08,-1.24,2.99,0.18,-0.49,0.00,0.00,0.00,0.00,2
-0.05,-0.08,-1.24,3.17,0.00,-0.85,0.00,0.00,0.93,0.00,2
-0.04,-0.07,-1.24,2.81,-0.06,-0.85,0.00,0.00,1.30,0.00,2
-0.04,-0.06,-1.23,2.99,-0.31,-1.16,0.00,0.00,0.00,0.00,2
-0.05,-0.07,-1.24,3.36,0.12,-0.55,0.00,0.00,0.00,0.00,2
-0.04,-0.07,-1.24,3.11,0.00,-0.67,0.00,0.00,0.00,0.00,2
-0.05,-0.08,-1.25,2.99,0.00,-0.73,0.00,0.00,0.00,0.00,2
-0.04,-0.08,-1.23,4.21,1.40,-0.92,0.00,0.00,0.00,0.00,2
-0.05,-0.07,-1.24,2.99,0.37,-0.61,0.00,0.00,0.00,0.00,2
-0.05,-0.07,-1.24,2.87,0.18,-0.67,0.00,0.00,0.00,0.00,2
-0.04,-0.08,-1.25,2.08,0.00,-1.04,0.00,0.00,0.00,0.00,2
-0.05,-0.07,-1.23,3.05,0.49,-0.73,0.00,0.00,0.00,0.00,2
-0.04,-0.08,-1.25,2.87,-0.18,-0.85,0.00,0.00,0.00,0.00,2
0.26,-0.06,-1.53,28.50,-64.94,20.63,0.00,0.00,0.00,0.00,2
0.26,0.32,-1.06,12.15,28.26,43.82,0.00,0.00,0.00,0.00,2
-0.16,0.12,-1.10,-10.86,46.57,-23.32,0.00,0.00,0.00,0.00,2
0.10,-0.08,-1.44,27.22,-65.55,-2.14,0.00,0.00,0.00,0.00,2
0.06,0.01,-1.21,0.73,-6.65,64.03,0.00,0.00,0.00,0.00,2
-0.16,0.10,-1.24,7.51,42.48,38.27,0.00,0.00,0.00,0.00,2
0.03,0.11,-1.26,13.37,1.04,-0.85,0.00,0.00,0.00,0.00,2
-0.17,0.05,-1.25,-8.06,-19.35,25.15,0.00,0.00,0.00,0.00,2
-0.13,0.01,-1.22,9.22,-2.20,41.08,0.00,0.00,0.00,0.00,2
-0.14,0.05,-1.27,-1.53,-4.09,-14.59,0.00,0.00,0.00,0.00,2
-0.14,0.01,-1.26,7.14,-0.73,1.10,0.00,0.00,0.00,0.00,2
-0.07,0.02,-1.24,3.30,49.87,-0.61,0.00,0.00,0.00,0.00,2
-0.19,0.05,-1.20,-1.59,-7.14,-1.89,0.00,0.00,0.00,0.00,2
-0.16,0.01,-1.23,3.66,4.70,0.31,0.00,0.00,0.00,0.00,2
-0.15,0.04,-1.24,3.23,1.10,-1.10,0.00,0.00,0.00,0.00,2
-0.17,0.04,-1.23,3.66,0.49,3.97,0.00,0.00,0.00,0.00,2
-0.17,0.04,-1.23,0.98,-2.01,-0.61,0.00,0.00,0.00,0.00,2
-0.16,0.05,-1.23,1.83,-0.61,-8.79,0.00,0.00,0.00,0.00,2
-0.16,0.04,-1.24,2.93,0.31,-0.73,0.00,0.00,0.00,0.00,2
-0.16,0.04,-1.23,2.93,0.37,-0.67,0.00,0.00,0.00,0.00,2
-0.16,0.04,-1.24,2.93,0.00,-0.98,0.00,0.00,0.00,0.00,2
-0.17,0.05,-1.23,2.99,0.61,-0.49,0.00,0.00,0.00,0.00,2
-0.14,0.04,-1.24,15.75,21.12,-2.20,0.00,0.00,0.00,0.00,2
-0.13,0.02,-1.22,5.80,4.33,-1.10,0.00,0.00,0.00,0.00,2
-0.14,0.03,-1.23,3.11,1.16,-0.85,0.00,0.00,0.00,0.00,2
-0.17,0.06,-1.25,0.43,-2.50,-0.73,0.00,0.00,0.00,0.00,2
-0.16,0.04,-1.24,-0.12,-5.00,-0.24,0.00,0.00,0.00,0.00,2
-0.18,0.06,-1.23,3.05,-0.49,-0.73,0.00,0.00,0.00,0.00,2
-0.15,0.03,-1.23,1.40,-1.46,-0.43,0.00,0.00,0.00,0.00,2
-0.15,0.04,-1.24,2.99,0.00,-0.73,0.00,0.00,0.00,0.00,2
-0.18,0.04,-1.25,4.46,0.37,-0.73,0.00,0.00,0.00,0.00,2
-0.15,0.04,-1.24,2.14,-1.53,-0.67,0.00,0.00,0.00,0.00,2
-0.16,0.06,-1.27,3.17,-1.10,-1.10,0.00,0.00,0.00,0.00,2
-0.17,0.05,-1.23,3.11,0.61,-0.79,0.00,0.00,0.00,0.00,2
-0.19,0.07,-1.21,-0.37,-2.56,-0.67,0.00,0.00,0.00,0.00,2
-0.18,0.05,-1.23,2.75,0.06,-0.79,0.00,0.00,0.00,0.00,2
-0.18,0.06,-1.23,2.75,-0.37,-0.79,0.00,0.00,0.00,0.00,2
-0.18,0.06,-1.23,3.30,-0.49,-0.49,0.00,0.00,0.00,0.00,2
-0.17,0.05,-1.23,2.81,0.06,-0.49,0.00,0.04,0.00,0.00,2
-0.18,0.06,-1.22,2.93,0.49,-0.85,0.00,0.05,0.00,0.00,2
-0.17,0.06,-1.24,-0.43,-4.94,-0.55,0.00,0.00,0.00,0.00,2
-0.18,0.04,-1.24,1.71,-1.95,-0.49,0.00,0.00,0.00,0.00,2
-0.15,0.04,-1.24,3.42,0.61,-0.73,0.00,0.00,0.00,0.00,2
-0.18,0.05,-1.23,2.44,-0.24,-0.61,0.00,0.05,0.00,0.00,2
-0.17,0.05,-1.22,3.11,-0.12,-0.67,0.00,0.00,0.00,0.00,2
-0.13,0.03,-1.21,3.66,0.31,-0.49,0.00,0.00,0.00,0.00,2
-0.14,0.04,-1.23,2.75,0.00,-0.67,0.00,0.00,0.00,0.00,2
-0.15,0.03,-1.24,2.81,0.00,-0.73,0.00,0.00,0.00,0.00,2
-0.14,0.03,-1.23,2.93,0.00,-0.85,0.00,0.00,0.00,0.00,2
-0.14,0.03,-1.24,2.99,-0.06,-0.55,0.00,0.00,0.00,0.00,2
-0.17,0.06,-1.24,3.97,1.40,-0.79,0.00,0.00,0.00,0.00,2
-0.17,0.05,-1.23,3.11,0.31,-0.61,0.00,0.13,0.00,0.00,2
-0.18,0.06,-1.24,2.26,-0.98,-0.61,0.00,0.00,0.00,0.00,2
-0.18,0.05,-1.24,2.62,0.00,-0.79,0.00,0.00,0.00,0.00,2
-0.17,0.05,-1.23,2.81,-0.18,-0.61,0.00,0.00,0.00,0.00,2
-0.17,0.06,-1.25,3.23,0.31,-0.61,0.00,0.00,0.00,0.00,2
-0.15,0.03,-1.23,2.93,0.61,-0.67,0.00,0.00,0.00,0.00,2
-0.14,0.04,-1.24,2.87,0.06,-0.92,0.00,0.00,0.00,0.00,2
-0.15,0.02,-1.22,2.56,-1.77,-0.67,0.00,0.00,0.00,0.00,2
-0.13,0.03,-1.23,8.06,6.84,-0.49,0.00,0.00,0.00,0.00,2
-0.18,0.06,-1.25,-1.89,-7.93,-0.61,0.00,0.15,0.00,0.00,2
-0.15,0.03,-1.23,2.81,0.06,-0.67,0.00,0.17,0.00,0.00,2
-0.15,0.04,-1.24,3.48,0.00,-0.55,0.00,0.00,0.00,0.00,2
-0.15,0.04,-1.24,2.56,-0.85,-0.85,0.00,0.00,0.00,0.00,2
-0.15,0.04,-1.24,2.99,0.55,-0.55,0.00,0.00,0.00,0.00,2
-0.15,0.04,-1.24,3.11,0.55,-0.73,0.00,0.00,0.00,0.00,2
-0.16,0.04,-1.23,-2.26,-7.57,-0.24,0.00,0.00,0.00,0.00,2
-0.15,0.04,-1.23,2.87,0.55,-0.98,0.00,0.00,0.00,0.00,2
-0.14,0.04,-1.24,2.62,-0.31,-0.85,0.00,0.00,0.00,0.00,2
-0.15,0.04,-1.24,2.69,-1.22,-0.73,0.00,0.00,0.00,0.00,2
-0.15,0.03,-1.24,3.11,0.24,-0.67,0.00,0.00,0.00,0.00,2
-0.16,0.05,-1.22,6.84,6.84,-0.67,0.00,0.00,0.00,0.00,2
-0.17,0.05,-1.23,2.69,-0.24,-0.43,0.00,0.00,0.00,0.00,2
-0.18,0.06,-1.27,4.52,3.48,-1.34,0.00,0.00,0.00,0.00,2
-0.15,0.04,-1.24,3.85,0.92,-0.67,0.00,0.00,0.00,0.00,2
-0.16,0.04,-1.24,4.46,2.08,-0.73,0.00,0.00,0.00,0.00,2
-0.14,0.03,-1.23,3.54,0.55,-0.61,0.00,0.00,0.00,0.00,2
-0.15,0.04,-1.25,2.93,-0.67,-0.67,0.00,0.00,0.00,0.00,2
-0.15,0.04,-1.24,3.11,0.55,-0.73,0.00,0.00,0.00,0.00,2
-0.15,0.04,-1.25,2.99,-0.18,-0.79,0.00,0.00,0.00,0.00,2
-0.17,0.05,-1.23,9.16,9.09,-1.46,0.00,0.00,0.00,0.00,2
-0.15,0.04,-1.24,2.87,0.98,-0.79,0.00,0.00,0.00,0.00,2
-0.18,0.04,-1.24,3.54,3.60,-1.22,0.00,0.00,0.00,0.00,2
-0.14,0.03,-1.24,3.17,0.92,-0.73,0.00,0.00,0.00,0.00,2
-0.19,0.05,-1.26,1.28,-3.72,-0.73,0.00,0.00,0.00,0.00,2
-0.14,0.04,-1.24,2.32,-16.36,-1.28,0.00,0.00,0.00,0.00,2
-0.10,0.04,-1.23,3.30,15.38,-0.24,0.00,0.00,0.00,0.00,2
-0.15,0.03,-1.23,3.11,0.00,-0.79,0.00,0.00,0.00,0.00,2
-0.09,0.03,-1.23,3.05,-0.67,-1.04,0.00,0.00,0.00,0.00,2
-0.18,0.06,-1.23,3.66,1.22,-0.92,0.00,0.00,0.00,0.00,2
-0.18,0.06,-1.23,2.87,0.00,-0.67,0.00,0.00,0.00,0.00,2
-0.16,0.06,-1.24,2.56,-0.06,-0.37,0.00,0.00,0.00,0.00,2
-0.17,0.05,-1.23,2.87,0.12,-0.79,0.00,0.00,0.98,0.00,2
-0.17,0.05,-1.23,2.75,0.00,-0.49,0.00,0.00,1.07,0.00,2
-0.17,0.05,-1.23,2.75,0.12,-0.61,0.00,0.00,0.50,0.00,2
-0.16,0.03,-1.23,2.81,0.18,-0.67,0.00,0.00,0.00,0.00,2
-0.15,0.03,-1.26,2.69,0.98,-0.73,0.00,0.00,0.00,0.00,2
-0.14,0.04,-1.24,3.36,0.49,-0.61,0.00,0.00,0.00,0.00,2
-0.17,0.03,-1.27,2.50,-1.53,-1.40,0.00,0.00,0.00,0.00,2
-0.15,0.04,-1.21,2.14,0.61,-0.61,0.00,0.00,0.00,0.00,2
-0.15,0.04,-1.24,2.50,-0.85,-0.73,0.00,0.00,0.00,0.00,2
-0.15,0.04,-1.24,3.17,0.12,-0.79,0.00,0.00,0.00,0.00,2
-0.15,0.04,-1.23,2.81,0.18,-0.92,0.00,0.00,0.00,0.00,2
-0.15,0.04,-1.24,2.87,0.06,-0.43,0.00,0.00,0.00,0.00,2
-0.14,0.04,-1.24,2.62,0.06,-0.55,0.00,0.00,0.00,0.00,2
-0.15,0.04,-1.24,2.69,0.49,-0.73,0.00,0.00,0.00,0.00,2
-0.16,0.04,-1.24,2.75,-0.06,-0.73,0.00,0.00,0.00,0.00,2
-0.14,0.04,-1.26,1.65,1.83,-0.37,0.00,0.00,0.00,0.00,2
-0.08,0.04,-1.22,1.53,-39.31,-1.40,0.00,0.00,0.00,0.00,2
0.03,0.03,-1.25,1.71,7.32,0.85,0.00,0.00,0.00,0.00,2
-0.05,0.02,-1.25,5.49,19.29,-0.37,0.00,0.00,0.00,0.00,2
-0.15,0.04,-1.24,2.56,2.01,-0.98,0.00,0.00,0.00,0.00,2
-0.15,0.05,-1.25,2.87,-1.16,-0.92,0.00,0.00,0.00,0.00,2
0.01,0.01,-1.13,1.83,-31.86,1.34,0.00,0.00,0.00,0.00,2
0.22,-0.03,-1.21,2.20,-7.26,-7.81,0.00,0.00,0.00,0.00,2
0.16,-0.04,-1.21,-1.65,16.05,-0.49,0.00,0.00,0.00,0.00,2
0.08,-0.02,-1.21,2.56,8.61,-20.20,0.00,0.00,0.00,0.00,2
-0.07,0.06,-1.25,3.05,-0.12,-0.43,0.00,0.00,0.00,0.00,2
-0.07,0.05,-1.24,2.75,0.37,-0.55,0.00,0.00,0.00,0.00,2
-0.07,0.05,-1.24,2.87,-0.06,-0.67,0.00,0.00,0.00,0.00,2
-0.07,0.05,-1.24,3.05,0.06,-0.85,0.00,0.00,0.00,0.00,2
-0.06,0.04,-1.24,-18.62,45.72,-48.52,0.00,0.00,0.00,0.00,2
-0.08,0.05,-1.24,2.99,-0.79,-0.73,0.00,0.00,0.00,0.00,2
-0.07,0.05,-1.24,2.81,-0.37,-0.67,0.00,0.00,0.00,0.00,2
-0.04,0.03,-1.20,4.52,-15.99,-1.34,0.00,0.00,0.00,0.00,2
-0.15,0.05,-1.23,2.87,0.37,-0.49,0.00,0.00,0.00,0.00,2
-0.15,0.05,-1.23,2.99,0.31,-0.61,0.00,0.00,0.00,0.00,2
-0.16,0.06,-1.23,3.05,1.04,-3.78,0.00,0.00,0.00,0.00,2
-0.16,0.05,-1.23,2.32,-0.98,-0.61,0.00,0.00,0.00,0.00,2
-0.15,0.06,-1.24,2.81,0.31,1.34,0.00,0.00,0.00,0.00,2
-0.15,0.05,-1.23,2.62,0.00,-0.67,0.00,0.00,0.00,0.00,2
-0.14,0.05,-1.24,5.19,-0.61,27.40,0.00,0.00,0.00,0.00,2
-0.06,0.05,-1.25,3.23,0.06,-0.61,0.00,0.00,0.00,0.00,2
-0.03,0.09,-1.24,4.03,0.55,17.64,0.00,0.00,0.00,0.00,2
-0.06,0.05,-1.24,2.32,-1.59,-0.55,0.00,0.00,0.00,0.00,2
-0.05,0.04,-1.25,2.08,-1.89,3.36,0.00,0.00,0.00,0.00,2
-0.07,0.06,-1.24,3.11,-0.31,6.59,0.00,0.00,0.00,0.00,2
-0.07,0.05,-1.24,2.75,-0.18,-0.79,0.00,0.00,0.00,0.00,2
-0.06,0.05,-1.24,2.81,0.12,-0.06,0.00,0.00,0.00,0.00,2
-0.06,0.05,-1.24,2.81,0.12,-0.79,0.00,0.00,0.00,0.00,2
-0.06,0.06,-1.24,3.05,0.06,-0.43,0.00,0.00,0.00,0.00,2
-0.06,0.05,-1.25,2.87,0.06,-0.61,0.00,0.00,0.00,0.00,2
-0.06,0.06,-1.24,3.05,0.00,-0.79,0.00,0.00,0.00,0.00,2
-0.06,0.05,-1.25,2.93,0.12,-0.55,0.00,0.00,0.73,0.00,2
-0.06,0.05,-1.24,2.99,0.24,-0.92,0.00,0.00,0.77,0.00,2
-0.07,0.06,-1.25,3.23,-0.43,6.04,0.00,0.00,0.00,0.00,2
-0.07,0.05,-1.24,2.69,0.31,-0.67,0.00,0.00,0.00,0.00,2
-0.07,0.05,-1.25,2.93,-0.12,-0.92,0.00,0.00,0.00,0.00,2
-0.06,0.05,-1.25,3.05,0.12,-0.73,0.00,0.00,0.00,0.00,2
-0.07,0.05,-1.25,2.93,0.24,-0.79,0.00,0.00,0.00,0.00,2
-0.06,0.05,-1.25,2.87,-0.37,-0.79,0.00,0.00,0.00,0.00,2
-0.08,0.04,-1.23,3.30,-0.37,14.10,0.00,0.00,0.00,0.00,2
-0.00,0.03,-1.24,2.62,0.06,-1.77,0.00,0.00,0.00,0.00,2
-0.06,0.06,-1.24,2.81,0.18,-0.55,0.00,0.00,0.00,0.00,2
-0.07,0.06,-1.24,2.50,1.16,-12.70,0.00,0.00,0.00,0.00,2
-0.08,0.05,-1.25,3.54,-8.00,-1.28,0.00,0.00,0.00,0.00,2
-0.06,0.06,-1.24,2.69,-1.59,-0.79,0.00,0.00,0.00,0.00,2
-0.07,0.06,-1.24,2.44,4.27,-0.55,0.00,0.00,0.00,0.00,2
-0.08,0.05,-1.25,2.87,-0.31,-0.67,0.00,0.00,0.00,0.00,2
-0.08,0.05,-1.25,2.69,-0.55,-0.67,0.00,0.00,0.00,0.00,2
-0.06,0.08,-1.25,3.30,-0.61,6.84,0.00,0.00,0.00,0.00,2
-0.06,0.05,-1.24,0.92,5.19,-7.39,0.00,0.00,0.00,0.00,2
-0.07,0.05,-1.25,2.75,0.00,-0.73,0.00,0.00,0.00,0.00,2
-0.09,0.06,-1.24,2.81,0.24,-0.73,0.00,0.00,0.00,0.00,2
-0.07,0.05,-1.25,2.93,0.37,-0.92,0.00,0.00,0.00,0.00,2
-0.13,0.06,-1.29,2.81,-3.05,-0.31,0.00,0.00,0.00,0.00,2
-0.08,0.05,-1.24,2.81,0.24,-1.04,0.00,0.00,0.00,0.00,2
-0.06,0.08,-1.21,3.11,-0.31,6.90,0.00,0.00,0.00,0.00,2
-0.08,0.04,-1.24,2.93,0.43,-0.67,0.00,0.00,0.00,0.13,2
-0.08,0.05,-1.24,2.75,-0.12,-0.73,0.00,0.00,0.00,0.00,2
-0.07,0.06,-1.24,3.48,5.68,4.46,0.00,0.00,0.00,0.00,2
-0.18,0.00,-1.23,2.32,1.46,-0.49,0.00,0.00,0.00,0.00,2
-0.17,0.00,-1.25,2.20,1.34,-0.55,0.00,0.00,0.00,0.00,2
-0.18,0.00,-1.23,2.87,0.00,-0.67,0.00,0.00,0.00,0.00,2
-0.18,0.00,-1.23,2.44,0.61,-0.55,0.00,0.00,0.00,0.00,2
-0.18,-0.00,-1.23,2.81,-0.12,-0.67,0.00,0.00,0.00,0.00,2
-0.19,0.00,-1.23,3.11,-0.24,-0.85,0.00,0.00,0.00,0.00,2
-0.18,-0.00,-1.23,3.78,-0.55,-0.79,0.00,0.00,0.00,0.00,2
-0.18,0.00,-1.23,2.93,0.00,-0.67,0.00,0.00,0.00,0.00,2
-0.22,-0.00,-1.23,7.08,-12.33,-8.54,0.00,0.00,0.00,0.00,2
-0.07,0.05,-1.25,2.87,-1.04,-1.34,0.00,0.00,0.00,0.00,2
-0.08,0.05,-1.24,2.87,-0.24,-0.55,0.00,0.00,0.00,0.00,2
-0.07,0.05,-1.25,2.81,0.00,-0.79,0.00,0.00,0.00,0.13,2
-0.08,0.05,-1.24,2.87,0.73,-0.61,0.00,0.00,0.00,0.09,2
-0.07,0.05,-1.24,2.81,-0.31,-0.73,0.00,0.00,0.00,0.07,2
-0.08,0.05,-1.24,3.11,-0.55,-0.73,0.00,0.00,0.00,0.00,2
-0.08,0.05,-1.24,2.81,0.18,-0.49,0.00,0.00,0.00,0.08,2
-0.08,0.05,-1.25,2.87,-0.37,-0.73,0.00,0.00,0.00,0.06,2
-0.08,0.05,-1.24,3.11,0.12,-0.67,0.00,0.00,0.00,0.05,2
-0.08,0.05,-1.25,2.44,1.65,-0.55,0.00,0.00,0.00,0.00,2
-0.07,0.05,-1.24,-1.10,12.21,6.96,0.00,0.00,0.00,0.00,2
-0.17,0.00,-1.24,2.69,0.00,-0.98,0.00,0.00,0.00,0.00,2
-0.17,0.00,-1.23,2.20,1.16,-0.43,0.00,0.00,0.00,0.00,2
-0.19,0.01,-1.24,11.66,-17.09,-1.71,0.00,0.00,0.00,0.00,2
-0.05,0.05,-1.24,0.92,7.69,-0.79,0.00,0.00,0.00,0.00,2
-0.05,0.05,-1.28,3.23,1.83,-0.79,0.00,0.00,0.00,0.00,2
-0.06,0.05,-1.23,2.69,6.71,-1.83,0.00,0.00,0.00,0.00,2
-0.09,0.05,-1.24,3.11,0.06,-0.67,0.00,0.00,0.00,0.00,2
-0.13,-0.02,-1.24,2.93,2.08,-7.87,0.00,0.00,0.00,0.00,2
-0.08,0.05,-1.25,2.93,-0.18,-0.61,0.00,0.00,0.00,0.00,2
-0.07,0.05,-1.23,2.62,-0.06,-0.73,0.00,0.00,0.00,0.00,2
-0.06,0.05,-1.25,1.40,4.58,-0.24,0.00,0.00,0.00,0.00,2
-0.08,0.05,-1.25,2.38,1.83,-0.12,0.00,0.00,0.00,0.00,2
-0.07,0.05,-1.24,3.05,-0.67,-0.85,0.00,0.00,0.00,0.00,2
-0.07,0.05,-1.24,2.56,0.61,-0.55,0.00,0.00,0.00,0.00,2
-0.07,0.05,-1.24,2.99,-0.24,-0.49,0.00,0.77,0.00,0.00,2
-0.06,0.05,-1.24,2.87,0.18,-0.67,0.00,0.88,0.00,0.00,2
-0.07,0.05,-1.25,2.93,0.37,-0.67,0.00,0.45,0.00,0.00,2
-0.08,0.05,-1.25,2.69,-1.83,-0.67,0.00,0.00,0.00,0.00,2
-0.07,0.05,-1.24,2.62,0.18,-0.67,0.00,0.00,1.04,0.00,2
-0.07,0.05,-1.24,2.99,0.06,-0.67,0.00,0.00,1.18,0.00,2
-0.07,0.05,-1.24,2.99,0.73,-0.55,0.00,0.00,0.92,0.00,2
-0.07,0.05,-1.25,2.81,-0.31,-0.67,0.00,0.00,0.00,0.00,2
-0.07,0.05,-1.24,2.75,0.37,-0.61,0.00,0.00,0.00,0.00,2
-0.07,0.05,-1.24,2.87,0.31,-0.61,0.00,0.00,0.00,0.00,2
-0.07,0.05,-1.24,2.93,0.06,-0.79,0.00,0.00,0.00,0.00,2
-0.08,0.05,-1.25,2.75,-0.73,-0.61,0.00,0.00,0.00,0.11,2
-0.07,0.05,-1.24,2.99,0.55,-0.92,0.00,0.00,0.00,0.00,2
-0.06,0.06,-1.24,2.62,0.61,-0.85,0.00,0.00,0.00,0.00,2
-0.08,0.06,-1.24,2.87,-0.24,-0.61,0.00,0.00,0.00,0.00,2
-0.07,0.05,-1.24,2.75,1.89,-0.55,0.00,0.00,0.00,0.00,2
-0.07,0.05,-1.24,3.05,-1.28,-0.92,0.00,0.00,0.00,0.00,2
-0.08,0.05,-1.25,2.93,0.55,-0.92,0.00,0.00,0.00,0.00,2
-0.07,0.05,-1.25,2.81,0.31,-0.79,0.00,0.00,0.00,0.00,2
-0.08,0.04,-1.24,2.93,-0.61,-1.22,0.00,0.00,0.00,0.00,2
-0.09,0.04,-1.24,2.08,1.22,22.52,0.00,0.00,0.00,0.00,2
-0.06,0.04,-1.24,-2.81,-12.08,4.46,0.00,0.00,0.00,0.00,2
-0.10,0.05,-1.23,3.17,-1.22,-0.79,0.00,0.00,0.00,0.00,2
-0.18,-0.00,-1.24,0.98,2.87,-0.67,0.00,0.00,0.00,0.00,2
-0.19,-0.01,-1.24,10.68,-13.67,-1.77,0.00,0.00,0.00,0.00,2
-0.07,0.05,-1.24,3.05,0.06,-0.79,0.00,0.00,0.00,0.00,2
-0.07,0.05,-1.24,2.93,0.12,-1.04,0.00,0.00,0.00,0.00,2
-0.07,0.06,-1.25,2.81,0.37,-0.73,0.00,0.00,0.00,0.00,2
-0.08,0.05,-1.25,2.69,0.43,-0.49,0.00,0.00,0.00,0.00,2
-0.07,0.05,-1.24,2.87,0.00,-0.67,0.00,0.00,0.00,0.00,2
-0.07,0.05,-1.24,2.75,0.67,-1.77,0.00,0.00,0.00,0.00,2
-0.08,0.05,-1.26,2.81,-0.67,-0.49,0.00,0.00,0.00,0.00,2
-0.08,0.05,-1.25,2.50,0.18,-0.73,0.00,0.00,0.00,0.00,2
-0.08,0.05,-1.24,3.17,-0.06,-0.73,0.00,0.00,0.00,0.00,2
-0.08,0.05,-1.24,3.30,0.00,-0.61,0.00,0.00,0.00,0.00,2
-0.09,0.05,-1.25,3.11,-0.49,-0.67,0.00,0.00,0.00,0.00,2
-0.08,0.05,-1.24,2.87,0.73,-0.73,0.00,0.00,0.00,0.00,2
-0.09,0.05,-1.25,2.93,0.73,-0.73,0.00,0.00,0.00,0.00,2
-0.07,0.05,-1.25,2.93,0.06,-0.61,0.00,0.00,0.00,0.00,2
-0.08,0.05,-1.23,2.93,0.06,-0.85,0.00,0.00,0.00,0.00,2
-0.07,0.05,-1.25,2.87,0.06,-0.98,0.00,0.00,0.00,0.00,2
-0.07,0.05,-1.24,2.93,0.43,-0.79,0.00,0.00,0.00,0.00,2
-0.07,0.05,-1.24,2.99,0.06,-1.04,0.00,0.00,0.00,0.09,2
-0.08,0.05,-1.25,3.05,-0.06,-0.61,0.00,0.00,0.00,0.00,2
-0.08,0.05,-1.24,2.69,-0.24,-0.85,0.00,0.00,0.00,0.00,2
-0.08,0.05,-1.25,2.87,0.24,-0.67,0.00,0.00,0.00,0.00,2
-0.07,0.06,-1.24,2.87,0.18,-0.43,0.00,0.00,0.00,0.00,2
-0.09,0.05,-1.25,2.32,-4.82,-1.22,0.00,0.00,0.00,0.00,2
-0.08,0.06,-1.24,2.93,-0.18,-0.67,0.00,0.00,0.00,0.00,2
-0.08,0.05,-1.24,2.93,0.31,-0.79,0.00,0.00,0.00,0.00,2
-0.08,0.05,-1.24,2.99,-0.06,-0.73,0.00,0.00,0.00,0.07,2
-0.03,0.04,-1.19,2.87,-6.59,-1.22,0.00,0.00,0.00,0.00,2
-0.07,0.05,-1.24,2.81,0.24,-0.61,0.00,0.00,0.00,0.12,2
-0.08,0.05,-1.25,2.93,-0.12,-0.92,0.00,0.00,0.00,0.12,2
-0.08,0.05,-1.24,2.87,0.06,-0.43,0.00,0.00,0.00,0.00,2
-0.08,0.05,-1.24,2.69,0.06,-0.92,0.00,0.00,0.00,0.00,2
-0.08,0.05,-1.24,2.87,0.00,-0.73,0.00,0.00,0.00,0.00,2
-0.08,0.05,-1.24,2.93,0.00,-0.67,0.00,0.00,0.00,0.00,2
-0.08,0.05,-1.25,2.81,0.06,-0.67,0.00,0.00,0.00,0.00,2
-0.07,0.05,-1.23,2.08,-2.20,-0.61,0.00,0.00,0.00,0.00,2
-0.07,0.05,-1.24,2.99,0.00,-0.85,0.00,0.00,1.22,0.00,2
-0.08,0.05,-1.25,2.69,0.24,-0.55,0.00,0.00,1.37,0.00,2
-0.08,0.05,-1.24,2.87,0.12,-0.92,0.00,0.00,0.00,0.00,2
-0.08,0.05,-1.24,2.99,0.00,-0.67,0.00,0.00,0.00,0.00,2
-0.08,0.05,-1.25,2.56,0.12,-0.12,0.00,0.85,0.00,0.00,2
-0.07,0.05,-1.24,2.87,0.24,-0.61,0.00,0.89,0.00,0.00,2
-0.08,0.05,-1.24,2.87,2.20,-0.73,0.00,0.00,0.00,0.00,2
-0.08,0.05,-1.24,2.81,-0.31,-0.49,0.00,0.00,0.00,0.00,2
-0.08,0.05,-1.24,2.93,0.37,-0.55,0.00,0.00,0.00,0.00,2
-0.08,0.05,-1.24,2.87,0.12,-0.67,0.00,0.00,0.00,0.00,2
-0.07,0.05,-1.25,3.05,1.40,-0.73,0.00,0.00,0.00,0.00,2
-0.08,0.05,-1.25,2.87,-0.79,-0.55,0.00,0.00,0.00,0.00,2
-0.07,0.05,-1.24,3.23,4.46,-0.37,0.00,0.00,0.00,0.00,2
-0.07,0.05,-1.24,2.75,1.28,-0.61,0.00,0.00,0.00,0.00,2
-0.08,0.05,-1.24,2.87,-0.24,-0.67,0.00,0.00,0.00,0.00,2
-0.10,0.04,-1.25,2.26,0.85,-16.54,0.00,0.00,0.00,0.00,2
-0.05,0.06,-1.22,2.26,2.38,0.00,0.00,0.00,0.00,0.00,2
-0.08,0.05,-1.24,2.87,-0.31,-0.55,0.00,0.00,0.00,0.00,2
-0.08,0.06,-1.24,2.62,-2.01,-0.79,0.00,0.00,0.00,0.00,2
-0.08,0.05,-1.23,2.99,0.31,-0.49,0.00,0.00,0.00,0.00,2
-0.07,0.05,-1.25,2.69,0.12,-0.73,0.00,0.00,0.00,0.00,2
-0.08,0.05,-1.24,2.99,0.06,-0.73,0.00,0.00,0.00,0.00,2
-0.08,0.05,-1.25,2.75,0.12,-0.61,0.00,0.00,0.00,0.00,2
-0.07,0.05,-1.25,2.75,0.12,-0.79,0.00,0.00,0.00,0.00,2
-0.08,0.05,-1.24,2.81,0.12,-0.73,0.00,0.00,0.00,0.00,2
-0.08,0.05,-1.24,2.93,-0.06,-0.85,0.00,0.00,0.00,0.00,2
-0.08,0.05,-1.24,3.05,0.37,-0.55,0.00,0.00,0.00,0.00,2
-0.08,0.05,-1.23,3.05,-0.24,-0.67,0.00,0.00,0.00,0.00,2
-0.08,0.05,-1.24,2.87,0.24,-0.61,0.00,0.00,0.00,0.00,2
-0.08,0.05,-1.25,2.75,0.18,-0.49,0.00,0.00,0.00,0.00,2
-0.08,0.05,-1.25,2.99,0.06,-0.61,0.00,0.00,0.00,0.00,2
-0.08,0.05,-1.24,2.93,0.18,-0.55,0.00,0.00,0.00,0.00,2
-0.08,0.05,-1.24,2.62,-0.06,-0.79,0.00,0.00,0.00,0.00,2
-0.08,0.05,-1.24,3.05,0.12,-0.67,0.00,0.00,0.00,0.00,2
-0.08,0.05,-1.24,2.93,-0.18,-0.67,0.00,0.00,0.00,0.00,2
-0.08,0.05,-1.25,2.81,0.12,-0.79,0.00,0.00,0.00,0.00,2
-0.07,0.05,-1.24,3.11,-0.24,-0.61,0.00,0.00,0.00,0.00,2
-0.07,0.06,-1.25,3.11,0.49,-0.55,0.00,0.00,0.00,0.00,2
-0.08,0.06,-1.24,3.05,0.00,-0.67,0.00,0.00,0.00,0.00,2
-0.08,0.05,-1.24,2.69,-0.12,-0.49,0.00,0.00,0.00,0.00,2
-0.08,0.05,-1.24,2.75,0.06,-0.49,0.00,0.00,0.00,0.00,2
-0.08,0.05,-1.24,2.93,-3.60,-0.98,0.00,0.00,0.00,0.00,2
-0.08,0.05,-1.24,3.05,0.37,-0.55,0.00,0.00,0.00,0.00,2
-0.08,0.05,-1.25,2.93,-0.49,-0.67,0.00,0.00,0.00,0.00,2
-0.08,0.05,-1.24,2.99,0.12,-0.85,0.00,0.00,1.07,0.00,2
-0.08,0.05,-1.24,3.17,0.00,-0.73,0.00,0.00,1.10,0.00,2
-0.08,0.05,-1.25,2.93,-0.12,-0.73,0.00,0.00,0.82,0.00,2
-0.08,0.05,-1.24,2.93,0.24,-0.92,0.00,0.00,0.00,0.00,2
-0.08,0.05,-1.24,2.81,0.92,-0.79,0.00,0.00,0.00,0.00,2
-0.08,0.05,-1.24,2.87,0.06,-0.55,0.00,0.00,0.00,0.00,2
-0.07,0.05,-1.24,2.81,-0.18,-0.31,0.00,2.31,0.00,0.00,2
-0.07,0.05,-1.24,2.69,-0.06,-0.73,0.00,2.24,0.00,0.00,2
-0.07,0.05,-1.24,2.69,0.31,-0.67,0.00,2.07,0.00,0.00,2
-0.07,0.05,-1.24,2.87,0.12,-0.85,0.00,2.24,0.00,0.00,2
-0.08,0.05,-1.24,2.75,0.06,-0.79,0.00,2.24,0.00,0.00,2
-0.08,0.05,-1.24,2.81,0.00,-0.61,0.00,2.66,0.00,0.00,2
-0.07,0.05,-1.25,2.50,0.12,-0.73,0.00,2.70,0.00,0.00,2
-0.07,0.05,-1.24,2.75,-0.06,-0.92,0.00,2.90,0.00,0.00,2
-0.07,0.05,-1.25,2.81,0.55,-0.49,0.00,2.21,0.47,0.00,2
-0.07,0.05,-1.24,2.81,0.24,-0.92,0.00,2.22,0.67,0.00,2
-0.08,0.05,-1.24,3.23,-0.37,-0.67,0.00,2.21,0.00,0.00,2
-0.07,0.05,-1.24,2.62,-0.12,-0.79,0.00,2.55,0.00,0.00,2
-0.07,0.05,-1.25,2.81,0.12,-0.61,0.00,2.21,0.00,0.00,2
-0.07,0.05,-1.24,2.93,0.12,-0.79,0.00,2.58,0.00,0.00,2
-0.06,0.07,-1.24,3.17,-0.49,9.34,0.00,2.13,0.00,0.00,2
-0.07,0.05,-1.24,2.56,0.61,-0.31,0.00,2.55,0.00,0.00,2
-0.08,0.05,-1.24,2.75,0.37,-0.67,0.00,2.19,0.00,0.00,2
-0.14,0.01,-1.24,3.36,-1.22,-4.46,0.00,2.21,0.00,0.00,2
-0.08,0.05,-1.24,2.87,-0.06,-0.67,0.00,2.21,0.00,0.00,2
-0.08,0.05,-1.24,4.39,-3.78,-0.85,0.00,2.24,0.00,0.25,2
-0.07,0.05,-1.25,2.93,0.06,-0.73,0.00,2.21,0.00,0.69,2
-0.07,0.05,-1.24,2.44,0.00,-0.73,0.00,2.20,0.00,0.85,2
-0.08,0.05,-1.24,3.05,-0.12,-0.67,0.00,2.04,0.00,0.82,2
-0.08,0.05,-1.26,2.56,0.98,-0.79,0.00,2.24,0.00,0.72,2
-0.08,0.05,-1.24,3.11,-0.43,-0.79,0.00,2.23,0.00,0.00,2
-0.07,0.06,-1.24,2.81,-0.06,-0.67,0.00,2.21,0.00,0.00,2
-0.08,0.05,-1.24,3.17,-0.98,-0.85,0.00,2.70,0.00,0.00,2
-0.07,0.06,-1.25,2.87,-0.24,-0.61,0.00,2.58,0.00,0.00,2
-0.07,0.05,-1.24,2.56,0.31,-0.67,0.00,2.82,0.00,0.00,2
-0.06,0.06,-1.24,3.05,0.43,-0.73,0.00,2.87,0.00,0.00,2
-0.07,0.05,-1.24,3.11,-0.06,-0.67,0.00,2.29,1.06,0.00,2
-0.07,0.05,-1.25,3.05,-0.06,-0.61,0.00,2.60,1.13,0.00,2
-0.07,0.05,-1.24,2.87,-0.43,-0.92,0.00,2.12,0.00,0.00,2
-0.07,0.05,-1.24,2.75,-0.18,-0.73,0.00,2.24,0.00,0.00,2
-0.08,0.05,-1.24,2.87,-0.06,-0.67,0.00,2.19,0.00,0.00,2
-0.08,0.05,-1.24,2.81,-0.24,-0.67,0.00,2.17,0.00,0.00,2
-0.07,0.05,-1.24,3.66,-1.46,-0.92,0.00,2.13,0.00,0.00,2
-0.07,0.05,-1.24,2.56,0.37,-0.92,0.00,2.14,0.00,0.00,2
-0.10,0.11,-1.25,5.13,-8.79,41.20,0.00,2.50,0.00,0.00,2
-0.09,0.04,-1.25,2.87,-0.12,-4.82,0.00,2.17,0.00,0.00,2
-0.07,0.05,-1.25,3.05,0.06,-0.61,0.00,2.19,0.00,0.00,2
-0.07,0.06,-1.24,2.38,0.85,-0.55,0.00,2.18,0.00,0.00,2
-0.10,0.05,-1.24,12.51,-22.22,-2.20,0.00,2.17,0.00,0.00,2
-0.08,0.05,-1.23,2.44,1.46,-0.55,0.00,2.17,0.00,0.00,2
-0.07,0.05,-1.24,2.75,0.67,-0.67,0.00,2.20,0.00,0.00,2
-0.02,0.06,-1.20,1.16,2.81,0.00,0.00,2.17,0.00,0.00,2
-0.10,0.04,-1.24,-2.81,12.57,0.18,0.00,2.21,0.00,0.00,2
-0.07,0.05,-1.23,3.17,1.22,12.70,0.00,2.17,0.00,0.00,2
-0.07,0.07,-1.29,3.11,0.31,8.30,0.00,2.49,0.00,0.00,2
-0.07,0.06,-1.24,3.30,-0.61,12.70,0.00,2.20,0.00,0.00,2
-0.06,0.06,-1.24,2.87,0.06,-0.73,0.00,2.52,0.00,0.00,2
-0.07,0.05,-1.23,2.75,0.24,-0.49,0.00,2.20,0.00,0.00,2
-0.07,0.05,-1.25,3.05,0.24,-0.67,0.00,2.50,0.00,0.00,2
-0.08,0.05,-1.24,2.99,0.37,-0.55,0.00,2.19,0.00,0.00,2
-0.08,0.05,-1.24,3.17,0.24,-0.61,0.00,2.18,0.00,0.00,2
-0.07,0.05,-1.25,2.99,-0.92,-0.61,0.00,2.20,0.00,0.00,2
-0.03,0.07,-1.21,2.81,2.44,-2.38,0.00,2.16,0.00,0.00,2
-0.07,0.05,-1.24,3.11,-0.06,-0.49,0.00,2.18,0.00,0.00,2
-0.07,0.05,-1.24,3.05,0.37,-0.79,0.00,2.31,0.00,0.00,2
-0.05,0.09,-1.24,2.87,0.00,5.31,0.00,2.44,0.00,0.00,2
-0.07,0.05,-1.24,2.50,0.43,-0.85,0.00,2.17,0.00,0.00,2
-0.07,0.05,-1.24,2.44,1.71,15.32,0.00,2.20,0.00,0.00,2
-0.07,0.07,-1.25,2.81,-0.06,-2.99,0.00,2.19,0.00,0.00,2
-0.07,0.06,-1.24,2.75,-0.12,-1.28,0.00,2.31,0.00,0.00,2
-0.07,0.06,-1.24,2.56,0.37,-0.73,0.00,2.18,0.00,0.00,2
-0.06,0.07,-1.25,2.87,0.37,3.05,0.00,2.18,0.00,0.00,2
-0.07,0.06,-1.26,3.36,-0.49,-0.55,0.00,2.48,0.00,0.00,2
-0.08,0.04,-1.25,3.05,-0.43,0.55,0.00,2.46,0.00,0.00,2
-0.07,0.05,-1.24,2.93,0.49,-0.67,0.00,2.17,0.00,0.00,2
-0.07,0.05,-1.23,2.69,0.24,-0.67,0.00,2.14,0.00,0.00,2
-0.06,0.05,-1.24,2.93,0.12,-0.85,0.00,2.18,0.00,0.00,2
-0.07,0.05,-1.24,2.75,0.18,-0.92,0.00,2.57,0.00,0.00,2
-0.07,0.05,-1.24,3.36,-0.12,-0.73,0.00,2.17,0.00,0.00,2
-0.07,0.05,-1.25,2.99,-0.98,-0.61,0.00,2.18,0.00,0.00,2
-0.10,0.06,-1.24,2.69,1.40,0.06,0.00,0.00,0.00,0.00,2
-0.18,0.00,-1.24,-7.32,25.27,7.45,0.00,0.00,0.00,0.00,2
-0.07,0.05,-1.24,2.87,0.06,-0.61,0.00,0.00,0.00,0.00,2
-0.05,0.07,-1.25,5.43,-4.94,-1.22,0.00,0.00,0.00,0.00,2
-0.08,0.05,-1.24,2.93,0.12,-0.92,0.00,0.00,0.00,0.00,2
-0.08,0.05,-1.24,3.17,-0.61,-0.73,0.00,0.00,0.00,0.00,2
-0.08,0.05,-1.25,2.99,-0.49,-0.79,0.00,0.00,0.89,0.00,2
-0.07,0.06,-1.25,2.81,0.43,-0.67,0.00,0.00,0.94,0.00,2
-0.07,0.05,-1.27,1.28,3.11,-0.79,0.00,0.00,0.00,0.00,2
-0.07,0.05,-1.24,2.62,-0.18,-0.73,0.00,0.00,0.00,0.00,2
-0.06,0.06,-1.24,3.23,-0.37,2.08,0.00,0.00,0.00,0.00,2
-0.07,0.06,-1.24,2.93,0.73,-0.55,0.00,0.00,0.00,0.00,2
-0.07,0.06,-1.24,2.69,0.31,-0.92,0.00,0.00,0.00,0.00,2
-0.08,0.05,-1.24,2.87,0.49,-0.61,0.00,0.00,0.00,0.00,2
-0.10,0.06,-1.24,4.82,-1.65,48.52,0.00,0.00,0.00,0.89,2
-0.08,0.05,-1.24,2.81,3.60,-0.18,0.00,0.00,0.00,0.00,2
-0.08,0.05,-1.24,2.75,-0.12,-0.43,0.00,0.00,0.00,0.96,2
-0.08,0.05,-1.25,3.05,0.12,-0.92,0.00,0.00,0.00,1.08,2
-0.07,0.05,-1.24,2.93,0.73,-0.92,0.00,0.00,0.00,0.00,2
-0.08,0.05,-1.24,2.69,0.24,-0.49,0.00,0.00,0.00,0.00,2
-0.07,0.06,-1.24,2.75,-0.49,-0.73,0.00,0.00,0.00,0.00,2
-0.08,0.05,-1.24,2.93,-0.31,8.91,0.00,0.00,0.00,0.00,2
-0.07,0.06,-1.27,1.59,-4.64,-0.49,0.00,0.00,0.00,0.00,2
-0.08,0.11,-1.26,2.20,-2.26,-9.77,0.00,1.89,0.00,0.00,2
-0.08,0.05,-1.25,2.87,-0.43,0.37,0.00,2.11,0.00,0.00,2
-0.07,0.05,-1.24,3.05,-0.24,-0.98,0.00,2.02,0.00,0.00,2
-0.07,0.05,-1.25,3.05,0.12,-0.61,0.00,2.32,0.00,0.00,2
-0.08,0.05,-1.24,3.23,0.24,-0.49,0.00,2.11,0.00,0.00,2
-0.07,0.05,-1.23,2.93,-0.06,-0.92,0.00,2.11,0.00,0.00,2
-0.08,0.05,-1.25,2.50,0.37,-0.73,0.00,2.11,0.00,0.00,2
-0.08,0.05,-1.24,2.87,0.00,-0.67,0.00,2.11,0.00,0.00,2
-0.08,0.05,-1.25,2.81,0.31,-0.67,0.00,2.12,0.00,0.00,2
-0.08,0.05,-1.24,2.62,0.00,-0.79,0.00,2.23,0.00,0.00,2
-0.08,0.05,-1.25,2.99,0.31,-0.49,0.00,2.12,0.00,0.00,2
-0.07,0.06,-1.25,3.05,-0.06,-0.73,0.00,2.22,0.00,0.00,2
-0.08,0.05,-1.24,2.81,0.12,-0.67,0.00,2.37,0.00,0.00,2
-0.08,0.05,-1.24,2.69,0.00,-0.92,0.00,2.21,0.00,0.00,2
-0.08,0.05,-1.24,2.75,0.12,-0.79,0.00,2.13,0.00,0.00,2
-0.07,0.05,-1.24,2.99,0.31,-0.73,0.00,2.12,0.00,0.00,2
-0.08,0.05,-1.24,2.99,0.00,-0.61,0.00,2.13,0.00,0.00,2
-0.08,0.05,-1.24,2.75,0.37,-0.79,0.00,2.13,0.00,0.00,2
-0.08,0.05,-1.24,2.93,0.37,-0.79,0.00,2.34,0.00,0.00,2
-0.08,0.05,-1.24,2.87,0.18,-0.79,0.00,2.13,0.00,0.00,2
-0.08,0.05,-1.25,2.93,0.06,-0.61,0.00,2.13,0.00,0.00,2
-0.08,0.05,-1.24,2.99,0.00,-0.79,0.00,2.14,0.00,0.00,2
-0.07,0.05,-1.24,2.93,0.00,-0.79,0.00,2.13,0.00,0.00,2
-0.07,0.05,-1.24,2.69,0.31,-0.85,0.00,2.14,0.00,0.00,2
-0.08,0.05,-1.24,2.93,0.18,-0.73,0.00,2.13,0.00,0.00,2
-0.07,0.05,-1.24,2.69,-0.06,-0.67,0.00,2.14,0.00,0.00,2
-0.07,0.05,-1.25,2.93,0.06,-0.92,0.00,2.13,0.00,0.00,2
-0.07,0.05,-1.24,2.44,0.55,-0.67,0.00,2.22,0.00,0.00,2
-0.08,0.05,-1.24,2.75,0.12,-0.49,0.00,2.14,0.00,0.00,2
-0.07,0.05,-1.24,2.81,0.00,-0.61,0.00,2.14,0.00,0.00,2
-0.07,0.05,-1.24,2.93,0.31,-0.73,0.00,2.14,0.00,0.00,2
-0.08,0.06,-1.25,2.87,0.06,-0.79,0.00,2.41,0.00,0.00,2
-0.08,0.05,-1.25,2.99,0.06,-0.79,0.00,2.39,0.00,0.00,2
-0.08,0.05,-1.24,2.81,0.31,-0.67,0.00,2.13,0.00,0.00,2
-0.08,0.05,-1.24,2.75,0.12,-0.79,0.00,2.13,0.00,0.00,2
-0.08,0.05,-1.24,2.87,0.31,-0.98,0.00,2.13,0.00,0.00,2
-0.08,0.05,-1.25,2.87,0.06,-0.79,0.00,2.12,0.00,0.00,2
-0.07,0.05,-1.25,2.75,0.24,-0.85,0.00,2.12,0.00,0.00,2
-0.08,0.05,-1.25,3.05,0.06,-0.61,0.00,2.24,0.00,0.00,2
-0.07,0.05,-1.24,3.11,-0.12,-0.79,0.00,2.14,0.00,0.00,2
-0.08,0.05,-1.24,2.69,0.00,-0.49,0.00,2.60,0.00,0.00,2
-0.08,0.05,-1.24,2.99,0.12,-0.67,0.00,2.28,0.00,0.00,2
-0.07,0.05,-1.25,3.05,-0.12,-0.67,0.00,2.16,0.00,0.00,2
-0.08,0.05,-1.25,2.99,0.18,-0.79,0.00,2.14,0.00,0.00,2
-0.08,0.06,-1.25,2.87,0.12,-0.79,0.00,2.14,0.00,0.00,2
-0.08,0.05,-1.24,2.81,0.24,-0.55,0.00,2.14,0.00,0.00,2
-0.08,0.05,-1.25,2.99,0.00,-0.73,0.00,2.12,0.00,0.00,2
-0.07,0.05,-1.24,2.56,0.06,-0.79,0.00,2.46,0.00,0.00,2
-0.08,0.06,-1.24,2.81,0.12,-0.43,0.00,2.13,0.00,0.00,2
-0.07,0.05,-1.24,3.17,0.00,-0.79,0.00,2.12,0.00,0.00,2
-0.08,0.05,-1.24,2.87,-0.18,-0.73,0.00,2.39,0.00,0.00,2
-0.08,0.05,-1.24,3.17,0.31,-0.79,0.00,2.13,0.00,0.00,2
-0.07,0.06,-1.24,2.75,-0.06,-0.49,0.00,2.12,0.00,0.00,2
-0.08,0.06,-1.24,2.93,0.31,-0.79,0.00,2.17,0.00,0.00,2
-0.08,0.05,-1.24,2.87,-0.12,-0.61,0.00,2.14,0.00,0.00,2
-0.07,0.05,-1.24,3.11,0.00,-0.55,0.00,2.24,0.00,0.00,2
-0.07,0.05,-1.24,2.87,0.18,-0.67,0.00,2.39,0.00,0.00,2
-0.07,0.05,-1.25,2.99,-0.18,-0.73,0.00,2.39,0.00,0.00,2
-0.08,0.05,-1.23,2.93,0.37,-0.92,0.00,2.13,0.00,0.00,2
-0.08,0.05,-1.25,2.69,0.12,-0.85,0.00,2.15,0.00,0.00,2
-0.07,0.05,-1.25,2.87,0.24,-0.73,0.00,2.12,0.00,0.00,2
-0.07,0.05,-1.24,2.99,-0.18,-0.61,0.00,2.13,0.00,0.00,2
-0.08,0.05,-1.24,2.87,0.18,-0.79,0.00,2.12,0.00,0.00,2
-0.08,0.06,-1.24,3.05,-0.18,-0.55,0.00,2.13,0.00,0.00,2
-0.07,0.05,-1.25,2.87,0.18,-0.92,0.00,2.12,0.00,0.00,2
-0.07,0.05,-1.24,3.11,0.12,-0.61,0.00,2.02,0.00,0.00,2
-0.08,0.05,-1.24,2.87,0.18,-0.61,0.00,2.12,0.00,0.00,2
-0.08,0.05,-1.25,2.93,0.06,-0.73,0.00,2.14,0.00,0.00,2
-0.08,0.05,-1.24,2.81,0.24,-0.73,0.00,2.12,0.00,0.00,2
-0.08,0.05,-1.24,2.87,0.06,-0.79,0.00,2.12,0.00,0.00,2
-0.07,0.04,-1.24,-2.99,14.40,10.38,0.00,2.00,0.00,0.00,2
-0.08,0.07,-1.23,2.14,1.59,-18.07,0.00,2.14,0.00,0.00,2
-0.07,0.05,-1.24,2.99,0.43,-2.26,0.00,2.18,0.00,0.00,2
-0.08,0.06,-1.24,2.93,0.18,-0.61,0.00,2.19,0.00,0.00,2
-0.08,0.05,-1.25,2.93,0.06,-0.73,0.00,2.12,0.00,0.00,2
-0.08,0.05,-1.25,3.23,0.12,-0.67,0.00,2.09,0.00,0.00,2
-0.08,0.05,-1.24,3.05,-0.06,-0.55,0.00,2.11,0.00,0.00,2
-0.07,0.05,-1.24,2.93,0.24,-0.61,0.00,2.10,0.00,0.00,2
-0.07,0.05,-1.24,2.93,-0.12,-0.85,0.00,2.11,0.00,0.00,2
-0.08,0.05,-1.25,2.69,0.61,-0.79,0.00,2.15,0.00,0.00,2
-0.07,0.05,-1.25,3.11,0.06,-0.79,0.00,2.25,0.00,0.00,2
-0.08,0.05,-1.24,2.69,0.37,-0.79,0.00,2.13,0.00,0.00,2
-0.07,0.05,-1.24,2.69,0.31,-0.67,0.00,2.11,0.00,0.00,2
-0.07,0.05,-1.24,3.05,0.24,-0.61,0.00,2.13,0.00,0.00,2
-0.07,0.05,-1.25,3.05,-0.18,-0.79,0.00,2.12,0.00,0.00,2
-0.07,0.05,-1.24,2.81,0.31,-0.61,0.00,2.11,0.00,0.00,2
-0.08,0.05,-1.25,2.87,0.24,-0.61,0.00,2.09,0.00,0.00,2
-0.08,0.05,-1.23,2.56,0.18,-0.67,0.00,2.11,0.00,0.00,2
-0.07,0.06,-1.25,2.81,0.06,-0.49,0.00,2.08,0.00,0.00,2
-0.07,0.05,-1.24,2.69,-0.06,-0.55,0.00,2.11,0.00,0.00,2
-0.07,0.06,-1.25,2.87,0.18,-0.49,0.00,2.08,0.00,0.00,2
-0.08,0.05,-1.24,2.81,-0.43,-0.55,0.00,2.25,0.00,0.00,2
-0.07,0.05,-1.24,2.69,0.31,-0.67,0.00,2.28,0.00,0.00,2
-0.08,0.06,-1.24,3.11,-0.06,-0.67,0.00,2.63,0.00,0.00,2
-0.07,0.05,-1.23,2.87,0.12,-0.61,0.00,2.20,0.00,0.00,2
-0.08,0.05,-1.24,2.62,0.00,-0.61,0.00,2.17,0.00,0.00,2
-0.07,0.05,-1.24,2.93,0.18,-0.67,0.00,2.13,0.00,0.00,2
-0.07,0.05,-1.24,2.93,0.12,-0.73,0.00,2.17,0.00,0.00,2
-0.08,0.05,-1.24,3.17,-0.18,-0.73,0.00,2.13,0.00,0.00,2
-0.08,0.05,-1.24,2.93,0.06,-0.49,0.00,2.11,0.00,0.00,2
-0.07,0.05,-1.25,2.87,0.00,-0.61,0.00,2.36,0.00,0.00,2
-0.07,0.05,-1.24,2.99,-0.18,-0.79,0.00,2.11,0.00,0.00,2
-0.07,0.05,-1.24,2.99,0.12,-0.61,0.00,2.14,0.00,0.00,2
-0.07,0.06,-1.25,2.87,0.18,-0.79,0.00,2.11,0.00,0.00,2
-0.07,0.05,-1.25,2.75,0.18,-0.67,0.00,2.38,0.00,0.00,2
-0.07,0.05,-1.24,2.99,0.00,-0.85,0.00,2.12,0.00,0.00,2
-0.08,0.05,-1.24,3.05,0.31,-0.85,0.00,2.13,0.00,0.00,2
-0.08,0.05,-1.24,3.23,0.12,-0.67,0.00,2.11,0.00,0.00,2
-0.07,0.05,-1.24,3.11,-0.06,-0.92,0.00,2.11,0.00,0.00,2
-0.08,0.05,-1.25,2.99,0.12,-0.55,0.00,2.32,0.00,0.00,2
-0.07,0.05,-1.24,2.87,0.00,-0.55,0.00,2.13,0.00,0.00,2
-0.08,0.05,-1.24,3.05,0.12,-0.73,0.00,2.16,0.00,0.00,2
-0.08,0.05,-1.25,2.81,0.12,-0.73,0.00,2.11,0.00,0.00,2
-0.08,0.05,-1.24,2.93,-0.06,-0.67,0.00,2.11,0.00,0.00,2
-0.07,0.06,-1.24,2.93,0.00,-0.55,0.00,2.11,0.00,0.00,2
-0.07,0.05,-1.25,3.05,0.00,-0.37,0.00,2.11,0.00,0.00,2
-0.08,0.05,-1.24,2.75,0.06,-0.61,0.00,2.27,0.00,0.00,2
-0.07,0.06,-1.25,1.89,1.89,-0.79,0.00,2.13,0.00,0.00,2
-0.10,0.05,-1.23,1.10,3.72,-0.37,0.00,2.23,0.00,0.00,2
-0.06,0.06,-1.23,2.50,1.28,-0.49,0.00,2.37,0.00,0.00,2
-0.16,0.01,-1.24,0.55,3.91,-7.45,0.00,2.13,0.00,0.00,2
-0.08,0.01,-1.24,2.93,0.18,-0.85,0.00,1.88,0.00,0.00,2
-0.08,0.04,-1.22,1.95,-2.44,-0.31,0.00,1.43,0.00,0.00,2
-0.11,0.07,-1.34,0.00,-5.55,1.10,0.00,0.72,0.00,0.00,2
-0.07,0.05,-1.25,2.50,0.92,-0.49,0.00,1.88,0.00,0.00,2
-0.19,-0.13,-1.29,12.70,-19.29,31.19,0.00,2.03,0.00,0.00,2
-0.00,0.03,-1.24,2.81,0.49,-4.46,0.00,1.90,0.00,0.00,2
-0.08,0.05,-1.24,2.62,-0.06,-0.67,0.00,0.74,0.00,0.00,2
-0.08,0.05,-1.25,2.93,0.00,-0.79,0.00,0.00,0.00,0.00,2
-0.06,0.06,-1.24,2.69,-0.73,-0.43,0.00,0.00,0.00,0.00,2
-0.07,0.05,-1.25,2.87,0.24,-0.85,0.00,0.00,0.00,0.00,2
-0.07,0.06,-1.25,3.11,-0.12,-0.61,0.00,0.00,0.00,0.00,2
-0.06,0.05,-1.24,2.56,1.10,-0.61,0.00,0.00,0.00,0.00,2
-0.08,0.06,-1.26,2.75,1.10,-0.55,0.00,0.00,0.00,0.00,2
-0.07,0.06,-1.24,3.05,0.00,-0.73,0.00,0.00,0.00,0.00,2
-0.07,0.06,-1.24,2.62,0.49,-0.79,0.00,0.00,0.00,0.00,2
-0.06,0.08,-1.24,0.67,4.64,-1.16,0.00,0.00,0.00,0.00,2
-0.08,0.05,-1.24,3.11,-0.31,-0.79,0.00,0.00,0.00,0.00,2
-0.07,0.05,-1.24,3.23,0.55,-2.01,0.00,0.00,0.00,0.00,2
-0.07,0.07,-1.23,2.99,-1.10,7.26,0.00,0.00,0.00,0.00,2
-0.06,0.07,-1.25,2.69,0.06,-0.43,0.00,0.00,0.00,0.00,2
-0.07,0.05,-1.24,2.69,-0.61,-0.67,0.00,0.00,0.00,0.00,2
-0.06,0.06,-1.24,3.54,-0.18,-0.79,0.00,0.00,0.00,0.00,2
-0.07,0.05,-1.24,2.99,-0.06,-1.04,0.00,0.00,0.00,0.00,2
-0.07,0.05,-1.24,3.23,0.49,-1.04,0.00,1.81,0.00,0.00,2
-0.07,0.05,-1.25,2.69,-0.37,-0.61,0.00,1.76,0.00,0.00,2
-0.06,0.04,-1.28,-0.31,-2.81,-0.85,0.00,1.90,0.00,0.00,2
-0.07,0.06,-1.24,2.69,0.24,-0.55,0.00,1.92,0.00,0.00,2
-0.07,0.05,-1.24,2.81,-0.31,-0.67,0.00,1.75,0.00,0.00,2
-0.04,0.10,-1.25,4.64,0.67,0.00,0.00,1.54,0.00,0.00,2
-0.06,0.05,-1.24,3.91,2.69,-0.49,0.00,0.00,0.00,0.00,2
-0.07,0.05,-1.24,2.75,0.18,-0.61,0.00,0.00,0.00,0.00,2
-0.07,0.05,-1.24,2.93,0.00,-0.79,0.00,0.00,0.00,0.00,2
-0.07,0.05,-1.23,3.05,0.18,-0.85,0.00,0.00,0.00,0.00,2
-0.06,0.05,-1.24,2.75,-0.12,-0.85,0.00,0.00,0.00,0.00,2
-0.07,0.05,-1.24,2.99,-0.06,-0.61,0.00,0.00,0.00,0.00,2
-0.07,0.05,-1.24,2.56,0.06,-0.67,0.00,0.00,0.00,0.00,2
-0.08,0.05,-1.24,3.11,0.18,-0.67,0.00,0.00,0.73,0.00,2
-0.07,0.05,-1.24,2.87,-0.12,-0.67,0.00,0.00,0.81,0.00,2
-0.07,0.05,-1.25,2.81,0.12,-0.98,0.00,0.00,0.13,0.00,2
-0.07,0.06,-1.24,2.93,0.31,-0.73,0.00,0.00,0.00,0.00,2
-0.07,0.05,-1.25,3.05,0.06,-0.55,0.00,0.00,0.00,0.00,2
-0.04,0.04,-1.26,3.30,-0.24,9.16,0.00,0.00,0.00,0.00,2
-0.08,0.05,-1.24,2.81,-0.37,-0.49,0.00,0.00,0.00,0.00,2
-0.08,0.05,-1.24,2.93,0.00,-0.61,0.00,0.00,0.00,0.85,2
-0.08,0.05,-1.24,2.81,-0.06,-0.67,0.00,0.00,0.00,0.89,2
-0.08,0.05,-1.25,2.87,-0.43,-0.61,0.00,0.00,0.00,0.82,2
-0.08,0.05,-1.24,2.93,-0.18,-0.85,0.00,0.00,0.00,0.00,2
-0.08,0.05,-1.23,2.93,0.00,-0.98,0.00,0.00,0.00,0.00,2
-0.07,0.06,-1.24,2.75,1.10,-0.79,0.00,0.00,0.64,0.00,2
-0.08,0.05,-1.24,3.05,0.18,-1.04,0.00,0.00,0.66,0.00,2
-0.08,0.05,-1.24,2.81,-0.06,-0.73,0.00,0.00,0.49,0.00,2
-0.08,0.05,-1.24,2.81,0.00,-0.55,0.00,0.00,0.45,0.00,2
-0.08,0.05,-1.24,2.56,0.06,-0.73,0.00,0.00,0.42,0.00,2
-0.08,0.05,-1.24,3.11,-0.12,-0.79,0.00,0.00,0.30,0.00,2
-0.08,0.05,-1.25,2.75,-0.18,-0.61,0.00,0.00,0.17,0.00,2
-0.07,0.05,-1.25,2.93,-0.18,-0.61,0.00,0.00,0.00,0.00,2
-0.08,0.05,-1.24,3.05,-0.24,-0.55,0.00,0.00,0.00,0.00,2
-0.08,0.05,-1.24,2.87,0.18,-0.85,0.00,0.00,0.00,0.00,2
-0.08,0.05,-1.25,2.81,0.06,-0.85,0.00,0.00,0.00,0.00,2
-0.08,0.05,-1.24,3.17,-0.24,-0.61,0.00,0.00,0.00,0.00,2
-0.08,0.05,-1.24,3.11,0.00,-0.73,0.00,0.00,0.00,0.00,2
-0.08,0.05,-1.25,2.93,-0.12,-0.98,0.00,0.00,0.00,0.00,2
-0.08,0.05,-1.24,2.75,0.06,-0.92,0.00,0.00,0.00,0.00,2
-0.07,0.05,-1.25,3.30,-0.06,-0.79,0.00,0.00,0.00,0.00,2
-0.08,0.05,-1.24,2.99,0.18,-0.67,0.00,0.00,0.00,0.00,2
-0.07,0.05,-1.24,2.87,0.18,-0.67,0.00,0.00,0.00,0.00,2
-0.08,0.05,-1.24,2.99,0.18,-0.73,0.00,0.00,0.00,0.00,2
-0.08,0.05,-1.24,3.11,0.00,-0.92,0.00,0.00,0.00,0.00,2
-0.09,0.05,-1.25,2.99,0.49,-0.67,0.00,0.00,0.00,0.00,2
-0.03,0.04,-1.22,2.93,5.86,-0.06,0.00,0.00,0.00,0.00,2
-0.07,0.04,-1.23,2.62,2.32,-6.23,0.00,0.00,0.00,0.00,2
-0.11,0.04,-1.25,3.17,-1.16,-0.43,0.00,0.00,0.00,0.00,2
-0.07,0.05,-1.24,2.87,-0.31,-0.49,0.00,0.00,0.00,0.00,2
-0.08,0.05,-1.24,2.69,2.14,-0.85,0.00,0.00,0.00,0.00,2
-0.06,0.05,-1.24,2.93,0.55,-1.04,0.00,0.00,0.00,0.00,2
-0.08,0.05,-1.24,0.24,2.32,-0.85,0.00,0.00,0.00,0.00,2
-0.06,0.04,-1.24,2.87,-0.49,0.67,0.00,0.00,0.00,0.00,2
-0.09,0.06,-1.26,2.87,-2.87,-0.79,0.00,0.00,0.00,0.00,2
-0.08,0.05,-1.25,2.99,0.92,-0.67,0.00,0.00,0.00,0.00,2
-0.07,0.05,-1.23,3.05,-1.04,-0.67,0.00,0.00,0.00,0.00,2
-0.10,0.00,-1.32,4.21,-12.82,-7.75,0.00,0.00,0.00,0.00,2
-0.03,0.07,-1.23,2.01,3.05,0.49,0.00,0.00,0.00,0.00,2
-0.07,0.05,-1.24,2.99,0.24,-0.61,0.00,0.00,0.00,0.00,2
-0.07,0.05,-1.24,2.69,0.06,-0.55,0.00,0.00,0.00,0.00,2
-0.07,0.05,-1.24,2.93,0.24,-0.67,0.00,0.00,0.00,0.00,2
-0.07,0.05,-1.24,2.99,0.18,-0.73,0.00,0.00,0.00,0.00,2
-0.08,0.05,-1.25,2.99,0.06,-0.43,0.00,0.00,0.60,0.00,2
-0.08,0.06,-1.25,2.93,0.12,-0.79,0.00,0.00,0.72,0.00,2
-0.07,0.06,-1.24,2.87,0.85,-0.49,0.00,0.00,0.00,0.00,2
-0.08,0.05,-1.25,3.11,-0.18,-0.73,0.00,0.00,0.00,0.00,2
-0.07,0.05,-1.25,2.87,-0.06,-0.61,0.00,0.00,0.00,0.00,2
-0.10,0.05,-1.26,2.69,-3.05,-0.37,0.00,0.00,0.00,0.00,2
-0.08,0.05,-1.24,2.75,0.12,-3.30,0.00,0.00,0.00,0.68,2
-0.07,0.05,-1.24,2.99,0.43,-0.55,0.00,0.00,0.00,0.00,2
-0.08,0.05,-1.24,2.93,-0.18,-0.67,0.00,0.00,0.00,0.00,2
-0.08,0.05,-1.25,2.75,-0.43,-0.73,0.00,0.00,0.00,0.00,2
-0.07,0.05,-1.25,2.93,0.06,-0.85,0.00,0.00,0.58,0.00,2
-0.07,0.05,-1.25,2.87,0.00,-0.73,0.00,0.00,0.65,0.00,2
-0.08,0.05,-1.24,2.87,-0.12,-0.61,0.00,0.00,0.70,0.00,2
-0.07,0.05,-1.24,3.36,-0.06,-0.61,0.00,0.00,0.00,0.73,2
-0.07,0.05,-1.23,2.81,0.12,-0.92,0.00,0.00,0.00,0.85,2
-0.08,0.05,-1.24,2.87,0.79,-0.67,0.00,0.00,0.00,0.00,2
-0.07,0.05,-1.25,2.87,0.00,-0.79,0.00,0.00,0.00,0.00,2
-0.07,0.05,-1.24,2.81,0.06,-0.55,0.00,0.00,0.00,0.00,2
-0.08,0.05,-1.24,2.87,0.06,-0.73,0.00,0.00,0.00,0.00,2
-0.07,0.05,-1.24,2.93,-0.06,-0.67,0.00,0.00,0.00,0.00,2
-0.07,0.05,-1.25,2.81,0.06,-0.79,0.00,0.00,0.00,0.00,2
-0.07,0.05,-1.24,2.99,-0.12,-0.73,0.00,0.00,0.00,0.00,2
-0.08,0.05,-1.24,2.87,0.18,-0.61,0.00,0.00,0.00,0.00,2
-0.08,0.05,-1.24,3.05,0.06,-0.49,0.00,0.00,0.00,0.00,2
-0.11,0.03,-1.23,1.89,2.26,-34.85,0.00,0.00,0.00,0.00,2
-0.08,0.05,-1.24,2.62,0.61,2.14,0.00,0.00,0.00,0.00,2
-0.08,0.05,-1.24,2.93,0.18,-0.73,0.00,0.00,0.00,0.00,2
-0.08,0.06,-1.25,2.93,0.31,-0.61,0.00,0.00,0.00,0.00,2
-0.08,0.05,-1.24,2.81,-0.18,-0.79,0.00,0.00,0.00,0.00,2
-0.09,0.05,-1.25,2.87,-0.31,-0.73,0.00,0.00,0.00,0.00,2
-0.10,0.05,-1.25,2.87,-0.55,-0.61,0.00,0.00,0.00,0.00,2
-0.08,0.05,-1.24,2.99,-0.12,-0.55,0.00,0.00,0.00,0.00,2
-0.05,0.07,-1.20,1.65,-0.55,-1.22,0.00,0.00,0.00,0.00,2
-0.07,0.05,-1.25,3.11,-1.28,-0.85,0.00,0.00,0.00,0.00,2
-0.06,0.07,-1.26,5.68,-9.40,12.15,0.00,0.00,0.00,0.00,2
-0.07,0.06,-1.25,2.26,-0.98,-0.61,0.00,0.00,0.00,0.00,2
-0.02,0.06,-1.21,10.38,13.37,-2.69,0.00,0.00,0.00,0.00,2
-0.03,0.04,-1.24,0.98,0.55,-8.91,0.00,0.00,0.00,0.00,2
-0.03,0.02,-1.23,2.44,0.12,-0.92,0.00,0.00,0.00,0.00,2
-0.10,-0.03,-1.24,2.44,-1.83,-5.31,0.00,0.00,0.00,0.00,2
-0.06,0.00,-1.23,3.11,1.53,-33.08,0.00,0.00,0.00,0.00,2
-0.07,0.02,-1.25,-1.46,-3.42,9.83,0.00,0.00,0.00,0.00,2
-0.03,0.04,-1.26,0.49,3.05,-0.79,0.00,0.00,0.00,0.00,2
-0.06,0.01,-1.25,9.58,-0.49,-41.75,0.00,0.00,0.00,0.00,2
-0.08,0.04,-1.24,3.48,-2.75,2.62,0.00,0.00,0.00,0.00,2
-0.06,0.05,-1.25,2.69,-0.12,-0.55,0.00,0.00,0.00,0.00,2
-0.06,0.04,-1.25,3.36,-0.31,-0.67,0.00,0.00,0.00,0.00,2
-0.07,0.05,-1.24,2.99,-0.92,-0.61,0.00,0.00,0.00,0.00,2
-0.07,0.05,-1.25,2.87,-1.10,-0.49,0.00,0.00,0.00,0.00,2
-0.06,0.04,-1.25,3.23,-4.39,-0.43,0.00,0.00,0.00,0.00,2
-0.08,0.06,-1.25,2.93,-1.28,-0.79,0.00,0.00,0.00,0.00,2
-0.11,0.04,-1.24,3.54,-1.10,14.71,0.00,0.00,0.00,0.00,2
-0.11,0.02,-1.23,4.27,0.43,0.00,0.00,0.00,0.00,0.00,2
-0.10,0.06,-1.24,3.42,-1.16,9.52,0.00,0.00,0.00,0.00,2
-0.07,0.05,-1.24,3.17,-0.67,-0.55,0.00,0.00,0.00,0.00,2
-0.07,0.08,-1.25,3.05,-0.49,2.56,0.00,0.00,0.00,0.00,2
-0.07,0.04,-1.26,2.75,0.37,-4.82,0.00,0.00,0.00,0.00,2
-0.05,0.06,-1.23,3.91,-4.64,-0.98,0.00,0.00,0.00,0.00,2
-0.08,0.05,-1.25,2.93,-0.06,-0.49,0.00,0.00,0.00,0.00,2
-0.10,0.03,-1.24,4.70,-4.27,0.31,0.00,0.00,0.00,0.00,2
-0.10,0.04,-1.23,13.37,-22.83,6.96,0.00,0.00,0.00,0.00,2
-0.13,0.04,-1.25,4.88,-11.17,15.32,0.00,0.00,0.00,0.00,2
-0.09,0.05,-1.25,3.54,-0.79,1.71,0.00,0.00,0.00,0.00,2
-0.10,0.04,-1.26,3.54,-2.38,9.89,0.00,0.00,0.00,0.00,2
-0.08,0.05,-1.24,2.99,1.34,-0.79,0.00,0.00,0.00,0.00,2
-0.07,0.05,-1.24,2.93,-1.22,0.06,0.00,0.00,0.00,0.00,2
-0.11,0.05,-1.27,2.50,-1.95,0.98,0.00,0.00,0.00,0.00,2
-0.11,0.06,-1.25,2.81,0.73,-0.73,0.00,0.00,0.00,0.00,2
-0.07,0.05,-1.24,2.69,0.98,-0.73,0.00,0.00,0.00,0.00,2
-0.14,0.06,-1.23,3.23,-3.23,-0.06,0.00,0.00,0.00,0.00,2
-0.08,0.05,-1.25,0.73,7.51,-0.31,0.00,0.00,0.00,0.00,2
-0.07,0.07,-1.25,2.01,3.48,-4.76,0.00,0.00,0.00,0.00,2
-0.17,0.01,-1.24,6.90,-8.67,-1.16,0.00,0.00,0.00,0.00,2
-0.18,0.02,-1.21,2.62,0.00,-0.61,0.00,0.00,0.00,0.00,2
-0.18,0.01,-1.24,2.62,3.72,-0.06,0.00,0.00,0.00,0.00,2
-0.14,0.04,-1.23,22.16,-46.45,-6.29,0.00,0.00,0.00,0.00,2
-0.05,0.06,-1.23,2.56,-1.16,-0.92,0.00,0.00,0.00,0.00,2
-0.08,0.06,-1.23,2.93,0.61,-1.53,0.00,0.00,0.00,0.00,2
-0.16,0.03,-1.23,-2.93,13.00,0.18,0.00,0.00,0.00,0.00,2
-0.17,0.01,-1.23,2.99,-0.12,-0.85,0.00,0.00,0.00,0.00,2
-0.17,0.01,-1.23,4.64,-1.77,-1.28,0.00,0.00,0.00,0.00,2
-0.18,0.02,-1.23,3.42,-0.67,-0.67,0.00,0.00,0.00,0.00,2
-0.13,0.03,-1.24,9.34,-14.65,-1.89,0.00,0.00,0.00,0.00,2
-0.11,0.05,-1.24,3.42,-3.11,-8.91,0.00,0.00,0.00,0.00,2
-0.12,0.02,-1.25,2.32,2.93,6.29,0.00,0.00,0.00,0.00,2
-0.13,0.06,-1.28,3.85,-3.11,-0.61,0.00,0.00,0.00,0.00,2
-0.07,0.05,-1.24,3.11,-0.18,-0.61,0.00,0.00,0.00,0.00,2
-0.08,0.05,-1.24,2.87,0.06,-0.73,0.00,0.00,0.00,0.00,2
-0.08,0.05,-1.24,2.99,0.00,-1.04,0.00,0.00,0.00,0.00,2
-0.08,0.05,-1.24,2.81,0.18,-0.73,0.00,0.00,0.00,0.00,2
-0.08,0.05,-1.25,2.81,-0.49,-0.67,0.00,0.00,0.00,0.00,2
-0.07,0.05,-1.24,3.05,0.31,-0.61,0.00,0.00,0.00,0.00,2
-0.07,0.05,-1.23,2.81,0.00,-0.43,0.00,0.00,0.00,0.00,2
-0.09,0.06,-1.23,2.99,2.56,12.57,0.00,0.00,0.00,0.00,2
-0.08,0.05,-1.24,2.93,0.00,-0.67,0.00,0.00,0.00,0.00,2
-0.08,0.05,-1.24,2.93,0.06,-0.79,0.00,0.00,0.00,0.00,2
-0.07,0.05,-1.24,3.11,0.92,-0.61,0.00,0.00,0.00,0.00,2
-0.09,0.04,-1.25,2.87,2.38,-2.38,0.00,0.00,0.00,0.00,2
-0.07,0.06,-1.24,2.99,-0.12,-0.73,0.00,0.00,0.00,0.00,2
-0.06,0.05,-1.24,2.56,-1.65,-0.67,0.00,0.00,0.00,0.00,2
-0.05,0.08,-1.24,1.77,1.89,-33.63,0.00,0.00,0.00,0.00,2
-0.08,0.05,-1.25,3.11,0.18,-0.61,0.00,0.00,0.00,0.00,2
-0.09,0.04,-1.24,2.81,-0.31,-0.43,0.00,0.00,0.00,0.00,2
-0.12,-0.00,-1.03,3.85,-5.49,19.23,0.00,0.00,0.00,0.00,2
-0.08,0.05,-1.24,2.99,-0.73,-0.67,0.00,0.00,0.00,0.00,2
-0.07,0.04,-1.22,2.75,20.75,1.46,0.00,0.00,0.00,0.00,2
-0.07,0.06,-1.25,2.93,0.55,-0.73,0.00,0.00,0.00,0.00,2
-0.04,0.07,-1.25,2.56,1.65,-9.46,0.00,0.00,0.00,0.00,2
-0.11,0.05,-1.27,2.81,-1.16,-4.76,0.00,0.00,0.00,0.00,2
-0.08,0.05,-1.25,3.17,-0.31,-0.92,0.00,0.00,0.00,0.00,2
-0.06,0.05,-1.23,2.38,-0.31,-4.94,0.00,0.00,0.00,0.00,2
-0.08,0.05,-1.25,2.38,-0.37,-0.55,0.00,0.00,0.00,0.00,2
-0.07,0.06,-1.24,2.69,0.12,-0.79,0.00,0.00,0.00,0.00,2
-0.08,0.05,-1.24,2.99,0.06,-0.55,0.00,0.00,0.00,0.00,2
-0.07,0.05,-1.24,2.81,0.18,-0.79,0.00,0.00,0.00,0.00,2
-0.07,0.05,-1.24,3.11,2.01,-0.67,0.00,0.00,0.00,0.00,2
-0.07,0.05,-1.24,3.11,3.60,-0.61,0.00,0.00,0.00,0.00,2
-0.08,0.05,-1.24,2.87,0.00,-0.79,0.00,0.00,0.00,0.00,2
-0.09,0.03,-1.25,1.46,7.32,3.66,0.00,0.00,0.00,0.00,2
-0.09,0.03,-1.25,3.23,-3.85,1.53,0.00,0.00,0.00,0.00,2
-0.07,0.06,-1.26,2.87,-0.43,-0.55,0.00,0.00,0.00,0.00,2
-0.10,0.04,-1.24,2.38,-1.59,-0.73,0.00,0.00,0.00,0.00,2
-0.08,0.05,-1.25,2.93,0.49,-0.61,0.00,0.00,0.00,0.00,2
-0.08,0.05,-1.24,3.05,0.79,-0.67,0.00,0.00,0.00,0.00,2
-0.08,0.05,-1.25,3.11,-0.12,-0.73,0.00,0.00,0.00,0.00,2
-0.07,0.05,-1.25,2.75,-0.12,-0.67,0.00,0.00,0.00,0.00,2
-0.09,0.05,-1.25,2.93,-0.24,-0.73,0.00,0.00,0.00,0.00,2
-0.08,0.05,-1.24,2.81,0.49,-0.85,0.00,0.00,0.00,0.00,2
-0.11,0.02,-1.29,6.41,-20.63,1.34,0.00,0.00,0.00,0.00,2
-0.09,0.04,-1.25,2.99,-0.85,-0.79,0.00,0.00,0.00,0.00,2
-0.07,0.06,-1.24,2.08,0.92,-0.92,0.00,0.00,0.00,0.00,2
-0.08,0.05,-1.24,2.69,0.06,-0.79,0.00,0.00,0.00,0.00,2
-0.16,0.02,-1.23,5.92,-7.69,-1.34,0.00,0.00,0.00,0.00,2
-0.18,0.00,-1.24,3.48,-0.85,-0.67,0.00,0.00,0.00,0.00,2
-0.16,0.02,-1.23,4.33,-2.81,-0.61,0.00,0.00,0.00,0.00,2
-0.17,0.01,-1.23,3.17,-0.61,-0.49,0.00,0.00,0.00,0.00,2
-0.11,0.04,-1.24,3.48,-1.22,-0.79,0.00,0.00,0.00,0.00,2
-0.15,0.02,-1.23,2.87,0.43,-0.55,0.00,0.00,0.00,0.00,2
-0.15,0.02,-1.24,2.93,-0.67,-0.55,0.00,0.00,0.00,0.00,2
-0.13,0.03,-1.24,0.98,4.15,-0.43,0.00,0.00,0.00,0.00,2
-0.10,0.04,-1.23,2.75,0.43,-0.61,0.00,0.00,0.00,0.00,2
-0.11,0.04,-1.24,1.22,4.09,-0.55,0.00,0.00,0.00,0.00,2
-0.07,0.04,-1.24,3.17,-0.49,-0.31,0.00,0.00,0.00,0.00,2
-0.08,0.06,-1.24,2.81,-0.18,-1.28,0.00,0.00,0.00,0.00,2
-0.07,0.06,-1.24,2.62,-0.92,7.81,0.00,0.00,0.00,0.00,2
-0.06,0.07,-1.24,2.26,1.46,-26.86,0.00,0.00,0.00,0.00,2
-0.12,0.05,-1.28,3.36,-1.04,1.71,0.00,0.00,0.00,0.00,2
-0.08,0.05,-1.25,3.05,0.24,0.85,0.00,0.00,0.00,0.00,2
-0.08,0.05,-1.24,0.24,6.59,4.46,0.00,0.00,0.00,0.00,2
-0.08,0.06,-1.24,2.44,0.31,-0.92,0.00,0.00,0.00,0.00,2
-0.08,0.05,-1.24,2.99,0.31,-0.55,0.00,0.00,0.00,0.00,2
-0.08,0.05,-1.25,2.93,0.18,-0.73,0.00,0.00,0.00,0.00,2
-0.07,0.04,-1.25,3.05,-0.24,2.62,0.00,0.00,0.00,0.00,2
-0.08,0.05,-1.24,2.75,0.00,-0.43,0.00,0.00,0.00,0.00,2
-0.08,0.05,-1.25,3.30,0.12,1.40,0.00,0.00,0.00,0.00,2
-0.07,0.05,-1.24,3.30,-0.06,8.97,0.00,0.00,0.00,0.00,2
-0.08,0.06,-1.25,2.69,-0.85,-2.99,0.00,0.00,0.00,0.00,2
-0.07,0.05,-1.24,2.87,0.73,-0.55,0.00,0.00,0.00,0.00,2
-0.08,0.06,-1.24,2.93,-0.24,-0.79,0.00,0.00,0.00,0.00,2
-0.08,0.05,-1.25,3.05,0.24,-0.55,0.00,0.00,0.00,0.00,2
-0.07,0.06,-1.24,2.75,1.83,-0.85,0.00,0.00,0.00,0.00,2
-0.10,0.04,-1.25,7.81,-12.15,-0.79,0.00,0.00,0.00,0.00,2
-0.09,0.05,-1.27,3.17,-7.69,-1.10,0.00,0.00,0.00,0.00,2
-0.19,0.06,-1.24,10.25,-20.02,-15.69,0.00,0.00,0.00,0.00,2
-0.08,0.07,-1.26,2.20,-10.38,2.69,0.00,0.00,0.00,0.00,2
-0.09,0.04,-1.24,2.44,0.37,-17.40,0.00,0.00,0.00,0.00,2
-0.06,0.00,-1.25,-2.87,14.40,-7.08,0.00,0.00,0.00,0.00,2
-0.10,0.04,-1.26,7.32,-11.29,-1.53,0.00,0.00,0.00,0.00,2
-0.09,0.05,-1.25,1.59,3.23,-0.49,0.00,0.00,0.00,0.00,2
-0.07,0.06,-1.24,3.30,-0.24,-0.61,0.00,0.00,0.00,0.00,2
-0.07,0.05,-1.23,2.38,-3.72,-0.85,0.00,0.00,0.00,0.00,2
-0.08,0.05,-1.24,2.62,0.18,-0.49,0.00,0.00,0.00,0.00,2
-0.07,0.05,-1.24,2.87,-0.12,-0.73,0.00,0.00,0.00,0.00,2
-0.08,0.05,-1.24,2.69,-0.06,-0.67,0.00,0.00,0.00,0.00,2
-0.07,0.05,-1.25,2.93,-0.18,-1.04,0.00,0.00,0.00,0.00,2
-0.08,0.05,-1.25,3.11,0.00,-0.73,0.00,0.00,0.00,0.00,2
-0.08,0.05,-1.25,2.81,0.18,-0.73,0.00,0.00,0.00,0.00,2
-0.08,0.05,-1.24,3.05,0.00,-0.85,0.00,0.00,0.00,0.00,2
-0.08,0.05,-1.24,2.81,0.18,-0.92,0.00,0.00,0.16,0.00,2
-0.08,0.05,-1.24,2.56,0.00,-0.85,0.00,0.00,0.64,0.00,2
-0.08,0.05,-1.25,2.81,-0.12,-0.67,0.00,0.00,0.00,0.00,2
-0.08,0.05,-1.32,2.44,-0.18,-0.67,0.00,0.00,0.00,0.00,2
-0.07,0.05,-1.24,3.11,0.31,-0.37,0.00,0.00,0.00,0.00,2
-0.09,0.05,-1.23,2.44,2.08,-0.43,0.00,0.00,0.00,0.00,2
-0.11,0.07,-1.24,3.42,-3.60,10.13,0.00,0.00,0.00,0.00,2
-0.07,0.06,-1.25,3.23,6.71,-0.43,0.00,0.00,0.00,0.00,2
-0.06,0.06,-1.24,4.70,-4.52,2.56,0.00,0.00,0.00,0.00,2
-0.10,0.04,-1.25,2.38,1.83,-0.55,0.00,0.00,0.00,0.00,2
-0.11,0.05,-1.24,1.77,4.52,22.58,0.00,0.00,0.00,0.00,2
-0.05,0.05,-1.21,3.36,-8.18,0.73,0.00,0.00,0.00,0.00,2
-0.11,0.04,-1.24,2.87,0.00,-2.08,0.00,0.00,0.00,0.00,2
-0.06,0.06,-1.24,1.83,-4.52,-0.06,0.00,0.00,0.00,0.00,2
-0.08,0.05,-1.24,2.87,-0.18,-0.73,0.00,0.00,0.00,0.00,2
-0.11,0.05,-1.25,2.87,2.93,-14.16,0.00,0.00,0.00,0.00,2
-0.14,0.05,-1.22,2.01,-0.43,-3.91,0.00,0.00,0.00,0.00,2
-0.06,0.05,-1.24,2.87,0.06,-2.14,0.00,0.00,0.00,0.00,2
-0.06,0.03,-1.26,-2.56,-9.89,-0.37,0.00,0.00,0.00,0.00,2
-0.07,0.05,-1.24,3.30,-0.18,-0.06,0.00,0.00,0.00,0.00,2
-0.10,0.05,-1.24,3.05,-12.57,16.54,0.00,0.00,0.00,0.00,2
-0.10,0.05,-1.26,3.11,3.66,-0.31,0.00,0.00,0.00,0.00,2
-0.08,0.05,-1.26,2.50,-1.04,-0.73,0.00,0.00,0.00,0.00,2
-0.03,0.06,-1.27,3.11,-2.26,10.56,0.00,0.00,0.00,0.00,2
-0.09,0.06,-1.24,2.87,0.00,-0.98,0.00,0.00,0.00,0.00,2
-0.08,0.05,-1.25,2.99,0.12,-0.55,0.00,0.00,0.00,0.00,2
-0.08,0.05,-1.25,2.75,0.00,-0.85,0.00,0.00,0.00,0.00,2
-0.09,0.05,-1.24,2.81,0.06,-0.85,0.00,0.00,0.00,0.00,2
-0.08,0.05,-1.25,2.69,0.00,-0.55,0.00,0.00,0.00,0.00,2
-0.08,0.05,-1.25,2.87,0.12,-0.85,0.00,0.00,0.00,0.00,2
-0.08,0.05,-1.25,2.93,-0.12,-0.55,0.00,0.00,0.00,0.00,2
-0.09,0.05,-1.24,3.17,-0.06,-0.92,0.00,0.00,0.00,0.00,2
-0.09,0.05,-1.23,2.87,0.18,-0.73,0.00,0.00,0.00,0.00,2
-0.14,0.08,-1.25,2.99,-0.31,-0.49,0.00,0.00,0.00,0.00,2
-0.07,0.04,-1.25,2.93,0.06,-0.85,0.00,0.00,0.00,0.00,2
-0.11,0.08,-1.23,2.81,0.12,-0.98,0.00,0.00,0.00,0.00,2
-0.06,0.03,-1.24,3.05,-0.06,-0.73,0.00,0.00,0.00,0.00,2
-0.09,0.06,-1.24,3.11,-0.06,-0.73,0.00,0.00,0.00,0.00,2
-0.08,0.06,-1.24,3.17,0.06,-0.61,0.00,0.00,0.00,0.00,2
-0.08,0.05,-1.24,3.05,-0.18,-0.67,0.00,0.00,0.00,0.00,2
-0.08,0.05,-1.24,2.81,0.24,-0.61,0.00,0.00,0.00,0.00,2
-0.09,0.05,-1.24,2.75,0.12,-0.92,0.00,0.00,0.00,0.00,2
-0.08,0.05,-1.24,2.99,0.06,-0.67,0.00,0.00,0.00,0.00,2
-0.09,0.05,-1.25,2.99,-0.24,-0.61,0.00,0.00,0.00,0.00,2
-0.08,0.05,-1.24,2.99,0.12,-0.61,0.00,0.00,0.00,0.00,2
-0.09,0.05,-1.24,2.93,0.06,-0.67,0.00,0.00,0.00,0.00,2
0.03,0.04,-1.19,-0.37,19.71,-4.21,0.00,0.00,0.00,0.00,2
-0.08,0.05,-1.25,2.99,0.37,-0.49,0.00,0.00,0.00,0.00,2
-0.08,0.05,-1.24,2.87,-0.06,-0.61,0.00,0.00,0.00,0.00,2
-0.08,0.05,-1.24,2.99,0.12,-0.55,0.00,0.00,0.00,0.00,2
-0.09,0.05,-1.25,2.38,1.22,-0.24,0.00,0.00,0.00,0.00,2
-0.15,0.01,-1.24,4.76,-2.50,2.26,0.00,0.00,0.00,0.00,2
-0.09,0.05,-1.24,2.87,-0.79,-0.92,0.00,0.00,0.00,0.00,2
-0.08,0.05,-1.26,3.54,-5.86,-2.50,0.00,0.00,0.00,0.00,2
-0.09,0.05,-1.24,3.60,-3.17,-0.98,0.00,0.00,0.00,0.00,2
-0.08,0.05,-1.24,2.81,-0.43,-0.67,0.00,0.00,0.00,0.00,2
-0.07,0.06,-1.24,3.97,-7.75,10.93,0.00,0.00,0.00,0.00,2
-0.08,0.05,-1.25,1.89,8.36,4.09,0.00,0.00,0.00,0.00,2
-0.11,0.03,-1.25,2.69,1.71,-9.83,0.00,0.00,0.00,0.00,2
-0.09,0.04,-1.24,3.48,-1.83,-1.22,0.00,0.00,0.00,0.00,2
-0.08,0.05,-1.24,2.93,0.12,-0.73,0.00,0.00,0.00,0.00,2
-0.23,-0.01,-1.30,10.62,-22.95,-3.05,0.00,0.00,0.00,0.00,2
-0.08,0.05,-1.24,2.81,0.18,-0.55,0.00,0.00,0.00,0.00,2
-0.09,0.05,-1.24,3.30,-0.67,-0.61,0.00,0.00,0.00,0.00,2
-0.07,0.06,-1.25,5.25,-8.06,-1.34,0.00,0.00,0.00,0.00,2
-0.10,0.05,-1.24,0.98,7.26,-0.37,0.00,0.00,0.00,0.00,2
-0.09,0.05,-1.24,2.87,0.00,-0.55,0.00,0.00,0.00,0.00,2
-0.08,0.05,-1.24,2.75,0.06,-0.85,0.00,0.00,0.00,0.00,2
-0.09,0.05,-1.24,3.42,-1.95,0.43,0.00,0.00,0.00,0.00,2
-0.11,0.08,-1.17,4.52,-6.23,-14.65,0.00,0.00,0.00,0.00,2
-0.09,0.05,-1.24,2.69,0.55,-0.67,0.00,0.00,0.00,0.00,2
-0.09,0.05,-1.24,2.99,0.06,-0.85,0.00,0.00,0.00,0.00,2
-0.09,0.05,-1.25,3.05,-0.43,-0.67,0.00,0.00,0.00,0.00,2
-0.09,0.05,-1.24,3.11,0.18,-0.61,0.00,0.00,0.00,0.00,2
-0.10,0.07,-1.24,2.69,0.37,-0.18,0.00,0.00,0.00,0.00,2
-0.10,0.05,-1.24,2.99,-0.37,-0.61,0.00,0.00,0.00,0.00,2
-0.09,0.05,-1.25,2.93,-0.37,-0.55,0.00,0.00,0.00,0.00,2
-0.09,0.05,-1.24,3.05,-0.06,-0.79,0.00,0.00,0.00,0.00,2
-0.09,0.05,-1.23,3.05,0.00,-0.98,0.00,0.00,0.00,0.00,2
-0.09,0.05,-1.24,3.05,-0.43,-0.55,0.00,0.00,0.00,0.00,2
-0.11,0.06,-1.25,2.99,-5.74,14.65,0.00,0.00,0.00,0.00,2
-0.06,0.05,-1.23,2.93,-0.06,-0.18,0.00,0.00,0.00,0.00,2
-0.07,0.05,-1.24,2.81,0.18,-0.55,0.00,0.00,0.00,0.00,2
-0.11,0.05,-1.26,11.78,-27.95,-3.05,0.00,0.00,0.00,0.00,2
-0.07,0.05,-1.24,2.81,0.61,-0.61,0.00,0.00,0.00,0.00,2
-0.07,0.05,-1.23,2.87,1.16,-1.53,0.00,0.00,0.00,0.00,2
-0.04,0.13,-1.23,2.08,1.28,-4.82,0.00,0.00,0.00,0.00,2
-0.07,0.05,-1.25,3.17,1.10,-0.55,0.00,0.00,0.00,0.00,2
-0.07,0.05,-1.24,2.87,-0.12,-0.85,0.00,0.00,0.00,0.00,2
-0.06,0.01,-1.28,5.00,-6.29,0.06,0.00,0.00,0.00,0.00,2
-0.07,0.06,-1.25,2.93,-0.31,5.92,0.00,0.00,0.00,0.00,2
-0.07,0.06,-1.25,3.11,-1.28,3.30,0.00,0.00,0.00,0.00,2
-0.06,0.05,-1.24,2.75,0.24,-0.55,5.02,0.00,0.00,0.00,2
-0.10,0.05,-1.26,2.69,-5.31,-0.67,3.99,0.00,0.00,0.00,2
-0.06,0.05,-1.24,3.17,1.10,-0.61,3.90,0.00,0.00,0.00,2
-0.09,0.05,-1.24,2.81,0.12,-0.79,3.65,0.00,0.00,0.00,2
-0.09,0.05,-1.24,3.17,-0.67,-0.61,3.85,0.00,0.00,0.00,2
-0.09,0.05,-1.24,2.93,0.06,-0.92,3.62,0.00,0.00,0.00,2
-0.08,0.05,-1.24,3.05,0.12,-0.61,3.61,0.00,0.00,0.00,2
-0.08,0.05,-1.24,2.81,0.06,-0.73,3.60,0.00,0.00,0.00,2
-0.09,0.05,-1.24,2.99,0.24,-0.61,3.56,0.00,0.00,0.00,2
-0.08,0.05,-1.24,3.11,-0.06,-0.67,3.42,0.00,0.00,0.00,2
-0.09,0.05,-1.24,2.81,-0.06,-0.43,3.41,0.00,0.00,0.00,2
-0.09,0.05,-1.24,2.99,0.06,-0.55,3.46,0.00,0.00,0.00,2
-0.09,0.05,-1.25,3.11,-0.06,-0.55,3.54,0.00,0.00,0.00,2
-0.09,0.05,-1.24,2.75,0.31,-0.61,3.46,0.00,0.00,0.00,2
-0.09,0.05,-1.25,3.11,-0.43,-0.85,3.48,0.00,0.00,0.00,2
-0.07,0.03,-1.31,2.50,0.12,-0.79,3.48,0.00,0.00,0.00,2
-0.08,0.03,-1.25,2.44,0.31,-10.74,0.00,0.00,0.00,0.00,2
-0.09,0.04,-1.24,3.11,-0.37,-0.79,0.00,0.00,0.00,0.00,2
-0.08,0.06,-1.25,6.77,-11.11,-1.28,0.00,0.00,0.00,0.00,2
-0.09,0.04,-1.25,0.43,4.76,-0.24,0.00,0.00,0.00,0.00,2
-0.18,-0.00,-1.23,2.44,0.06,-0.73,0.00,0.00,0.00,0.00,2
-0.18,-0.00,-1.24,5.00,-2.50,-0.67,0.00,0.00,0.00,0.00,2
-0.09,0.05,-1.24,5.31,-7.75,-1.16,0.00,0.00,0.00,0.00,2
-0.08,0.05,-1.24,2.99,0.12,-0.85,0.00,0.00,0.00,0.00,2
-0.08,0.05,-1.24,2.93,0.18,-0.98,0.00,0.00,0.00,0.00,2
-0.08,0.05,-1.24,2.50,0.37,-0.67,0.00,0.00,0.00,0.00,2
-0.08,0.05,-1.25,3.05,0.06,-0.61,0.00,0.00,0.00,0.00,2
-0.08,0.06,-1.23,2.93,0.06,-0.79,0.00,0.00,0.00,0.00,2
-0.09,-0.02,-1.26,3.60,-5.19,18.62,0.00,0.00,0.00,0.00,2
-0.17,0.01,-1.24,19.10,-29.66,-3.17,2.69,0.00,0.00,0.00,2
-0.08,0.05,-1.24,2.99,0.00,-0.79,3.04,0.00,0.00,0.00,2
-0.08,0.05,-1.25,2.87,-0.06,-0.79,1.80,0.00,0.00,0.00,2
-0.08,0.05,-1.25,2.93,-0.06,-0.55,3.07,0.00,0.00,0.00,2
-0.08,0.05,-1.24,2.99,0.06,-0.67,3.15,0.00,0.00,0.00,2
-0.08,0.05,-1.25,2.93,0.00,-0.67,3.15,0.00,0.00,0.00,2
-0.08,0.05,-1.24,2.87,0.00,-0.92,3.17,0.00,0.00,0.00,2
-0.08,0.05,-1.24,2.87,0.06,-0.85,3.17,0.00,0.00,0.00,2
-0.09,0.05,-1.24,2.69,-0.06,-0.85,3.17,0.00,0.00,0.00,2
-0.09,0.05,-1.24,2.75,0.00,-0.43,3.21,0.00,0.00,0.00,2
-0.09,0.05,-1.23,2.87,0.06,-0.49,3.21,0.00,0.00,0.00,2
-0.09,0.05,-1.24,2.81,0.24,-0.67,3.21,0.00,0.00,0.00,2
-0.09,0.05,-1.24,3.17,-0.06,-0.61,3.23,0.00,0.00,0.00,2
-0.08,0.05,-1.24,2.93,-0.06,-0.49,3.23,0.00,0.00,0.00,2
-0.09,0.05,-1.24,2.87,0.06,-0.73,3.11,0.00,0.00,0.00,2
-0.09,0.05,-1.24,2.93,0.18,-0.55,3.24,0.00,0.00,0.00,2
-0.09,0.05,-1.25,2.87,0.00,-0.67,3.24,0.00,0.00,0.00,2
-0.06,0.07,-1.25,2.75,0.49,0.37,3.26,0.00,0.00,0.00,2
-0.08,0.05,-1.25,2.99,-0.24,-0.55,3.27,0.00,0.00,0.00,2
-0.08,0.05,-1.25,2.81,0.06,-0.61,3.25,0.00,0.00,0.00,2
-0.08,0.06,-1.24,2.99,-0.12,-0.79,3.27,0.00,0.00,0.00,2
-0.08,0.05,-1.24,2.87,0.12,-0.61,3.22,0.00,0.00,0.00,2
-0.07,0.05,-1.25,2.75,0.24,-0.67,3.18,0.00,0.00,0.00,2
-0.08,0.06,-1.24,3.23,0.00,-0.37,3.31,0.00,0.00,0.00,2
-0.08,0.05,-1.24,2.93,-0.06,-0.55,3.26,0.00,0.00,0.00,2
-0.08,0.06,-1.24,2.81,0.24,-0.79,3.27,0.00,0.00,0.00,2
-0.08,0.05,-1.24,2.87,0.12,-0.61,3.28,0.00,0.00,0.00,2
-0.08,0.05,-1.25,2.87,-0.12,-0.55,2.43,0.00,0.00,0.00,2
-0.08,0.05,-1.24,2.75,0.18,-0.61,3.13,0.00,0.00,0.00,2
-0.08,0.05,-1.24,2.93,-0.12,-0.92,3.22,0.00,0.00,0.00,2
-0.08,0.05,-1.25,2.93,1.34,-0.67,3.22,0.00,0.00,0.00,2
-0.07,0.05,-1.24,3.05,0.43,-0.61,3.34,0.00,0.00,0.00,2
-0.08,0.05,-1.24,2.93,1.10,-0.73,3.32,0.00,0.00,0.00,2
-0.08,0.05,-1.24,2.69,0.49,-0.49,3.17,0.00,0.00,0.00,2
-0.08,0.05,-1.24,2.81,0.24,-0.79,3.55,0.00,0.00,0.00,2
-0.08,0.05,-1.24,2.93,0.61,-0.73,3.09,0.00,0.00,0.00,2
-0.06,0.05,-1.23,2.75,2.26,-5.74,3.21,0.00,0.00,0.00,2
-0.08,0.05,-1.24,2.26,2.26,-0.31,2.93,0.00,0.00,0.00,2
-0.07,0.05,-1.24,3.05,0.24,-0.67,3.02,0.00,0.00,0.00,2
-0.07,0.05,-1.24,2.75,0.31,-0.43,3.02,0.00,0.00,0.00,2
-0.07,0.05,-1.25,2.99,0.00,-0.55,3.21,0.00,0.00,0.00,2
-0.07,0.05,-1.24,2.93,-0.18,-0.73,3.32,0.00,0.00,0.00,2
-0.07,0.05,-1.24,2.87,-0.12,-0.73,3.11,0.00,0.00,0.00,2
-0.07,0.05,-1.25,2.38,1.65,-0.49,3.19,0.00,0.00,0.00,2
-0.07,0.06,-1.24,3.78,-2.81,-6.16,3.00,0.00,0.00,0.00,2
-0.07,0.05,-1.25,2.81,0.24,-0.67,3.08,0.00,0.00,0.00,2
-0.07,0.05,-1.25,2.87,0.00,-0.49,3.06,0.00,0.00,0.00,2
-0.08,0.05,-1.25,3.42,-0.92,-0.67,3.28,0.00,0.00,0.00,2
-0.07,0.05,-1.24,2.32,1.28,-0.61,3.45,0.00,0.00,0.00,2
-0.08,0.06,-1.28,4.39,-2.32,-0.85,3.39,0.00,0.00,0.00,2
-0.07,0.06,-1.24,3.66,-1.40,-0.79,3.40,0.00,0.00,0.00,2
-0.08,0.05,-1.25,3.60,-0.92,-0.67,3.27,0.00,0.00,0.00,2
-0.07,0.05,-1.25,2.26,1.22,-0.61,3.22,0.00,0.00,0.00,2
-0.07,0.05,-1.24,3.11,0.18,-0.73,0.00,0.00,0.00,0.00,2
-0.07,0.05,-1.24,2.62,0.55,-0.73,0.00,0.00,0.00,0.00,2
-0.08,0.05,-1.25,3.05,0.12,-0.79,0.00,0.00,0.00,0.00,2
-0.08,0.05,-1.24,2.56,0.67,-0.67,0.00,0.00,0.00,0.00,2
-0.11,0.03,-1.25,7.93,-11.41,-1.59,0.00,0.00,0.00,0.00,2
0.01,0.03,-1.23,-4.70,24.05,-4.21,0.00,0.00,0.00,0.00,2
-0.08,0.07,-1.22,2.20,3.05,-0.73,0.00,0.00,0.00,0.00,2
-0.11,0.05,-1.24,2.26,2.44,-0.49,0.41,0.00,0.00,0.00,2
-0.14,0.02,-1.31,14.95,-33.45,-4.33,0.21,0.00,0.00,0.00,2
-0.09,0.04,-1.24,1.83,-1.83,-29.97,0.50,0.00,0.00,0.00,2
-0.11,0.06,-1.23,1.83,2.38,-0.37,0.06,0.00,0.00,0.00,2
-0.05,0.06,-1.25,2.69,6.77,-0.85,0.22,0.00,0.00,0.00,2
-0.11,0.04,-1.23,2.87,-1.28,-11.66,0.78,0.00,0.00,0.00,2
-0.06,0.05,-1.23,1.34,6.16,-0.37,0.00,0.00,0.00,0.00,2
0.04,0.09,-1.24,-1.10,11.90,-19.65,0.00,0.00,0.00,0.00,2
-0.07,0.05,-1.24,3.05,-0.18,-0.67,0.00,0.00,0.00,0.00,2
-0.07,0.06,-1.25,2.44,-0.12,-12.27,0.00,0.00,0.00,0.00,2
-0.07,0.05,-1.24,2.81,0.37,-0.85,0.00,0.00,0.00,0.00,2
-0.05,0.07,-1.26,3.17,-1.28,2.56,0.00,0.00,0.00,0.00,2
-0.07,0.05,-1.25,2.75,0.24,-0.55,0.00,0.00,0.00,0.00,2
-0.07,0.05,-1.24,2.87,-0.43,-0.73,0.00,0.00,0.00,0.00,2
-0.08,0.05,-1.25,3.36,-0.79,-0.67,0.00,0.00,0.00,0.00,2
-0.08,0.06,-1.24,3.48,-0.37,9.40,0.00,0.00,0.00,0.00,2
-0.06,0.06,-1.26,1.77,1.40,-0.92,0.00,0.00,0.00,0.00,2
-0.06,0.07,-1.23,3.78,-1.65,-10.44,0.00,0.00,0.00,0.00,2
-0.09,0.05,-1.24,3.17,-1.77,-0.98,0.00,0.00,0.00,0.00,2
-0.08,0.05,-1.25,2.99,-0.12,-0.73,0.00,0.00,0.00,0.00,2
-0.07,0.05,-1.25,2.56,0.61,-0.49,0.00,0.00,0.00,0.00,2
-0.08,0.05,-1.25,3.48,-0.55,-0.85,0.00,0.00,0.00,0.00,2
0.02,0.08,-1.25,1.10,0.85,-27.28,0.00,0.00,0.00,0.00,2
-0.08,0.04,-1.24,3.54,-5.00,29.48,0.00,0.00,0.00,0.00,2
-0.08,0.05,-1.24,2.81,-0.37,-0.73,0.00,0.00,0.00,0.00,2
-0.07,0.05,-1.24,3.05,0.00,-0.79,0.00,0.00,0.00,0.00,2
-0.08,0.05,-1.24,3.05,-0.43,-0.73,0.00,0.00,0.00,0.00,2
-0.06,0.06,-1.24,2.56,0.37,-3.11,0.00,0.00,0.00,0.00,2
-0.07,0.06,-1.24,2.69,-0.12,-0.55,0.00,0.00,0.00,0.00,2
-0.08,0.05,-1.23,2.99,-0.06,-0.79,0.00,0.00,0.00,0.00,2
-0.08,0.05,-1.25,2.81,0.00,-0.49,0.00,0.00,0.00,0.00,2
-0.08,0.05,-1.24,2.93,0.31,-0.73,0.00,0.00,0.00,0.00,2
-0.08,0.05,-1.24,3.05,0.12,-0.67,0.00,0.00,0.00,0.00,2
-0.08,0.05,-1.24,2.99,-0.06,-0.61,0.00,0.00,0.00,0.00,2
-0.08,0.05,-1.24,2.87,0.12,-0.79,0.00,0.00,0.00,0.00,2
-0.08,0.05,-1.24,3.11,0.06,-0.67,0.00,0.00,0.00,0.00,2
-0.07,0.05,-1.24,2.87,0.18,-0.79,0.00,0.00,0.00,0.00,2
-0.08,0.05,-1.24,2.99,-0.12,-0.73,0.00,0.00,0.00,0.00,2
-0.08,0.05,-1.24,2.87,0.24,-0.49,0.00,0.00,0.00,0.00,2
-0.06,0.05,-1.24,2.14,0.12,-0.55,0.00,0.00,0.00,0.00,2
-0.06,0.05,-1.25,3.05,0.37,-0.61,0.00,0.00,0.00,0.00,2
-0.13,0.03,-1.24,-0.73,8.36,-0.06,0.00,0.00,0.00,0.00,2
-0.14,0.02,-1.25,11.96,-23.19,-2.26,0.00,0.00,0.00,0.00,2
-0.07,0.05,-1.24,2.50,-0.67,-0.85,0.00,0.00,0.00,0.00,2
-0.10,0.06,-1.24,1.89,0.61,1.77,0.00,0.00,0.00,0.00,2
-0.07,0.05,-1.23,2.69,3.91,-0.06,0.00,0.00,0.00,0.00,2
-0.08,0.05,-1.24,2.69,0.18,-0.79,0.00,0.00,0.00,0.00,2
-0.04,0.07,-1.25,6.59,-10.50,-10.99,0.00,0.00,0.00,0.00,2
-0.06,0.04,-1.25,2.26,1.59,-11.05,0.00,0.00,0.00,0.00,2
-0.06,0.06,-1.24,4.27,-4.27,-1.16,0.00,0.00,0.00,0.00,2
-0.07,0.05,-1.24,3.36,-0.67,8.06,0.00,0.00,0.00,0.00,2
-0.10,0.04,-1.24,4.46,-3.42,-1.04,0.00,0.00,0.00,0.00,2
-0.09,0.04,-1.25,1.34,4.46,-0.55,0.00,0.00,0.00,0.00,2
-0.16,0.02,-1.24,2.20,1.04,-0.43,0.00,0.00,0.00,0.00,2
-0.17,0.01,-1.23,4.52,-0.67,5.80,0.00,0.00,0.00,0.00,2
-0.10,0.04,-1.26,7.45,-13.31,-13.43,0.00,0.00,0.00,0.00,2
-0.07,0.05,-1.24,2.99,0.61,-0.55,0.00,0.00,0.00,0.00,2
-0.08,0.06,-1.22,3.66,-0.24,1.59,0.00,0.00,0.00,0.00,2
-0.06,0.06,-1.25,2.69,0.31,-1.77,0.00,0.00,0.00,0.00,2
-0.01,0.02,-1.18,8.06,9.70,15.32,0.00,0.00,0.00,0.00,2
-0.07,0.05,-1.24,2.56,-0.31,-0.92,0.00,0.00,0.00,0.00,2
-0.08,0.05,-1.25,2.93,0.18,-0.49,0.00,0.00,0.00,0.00,2
-0.08,0.06,-1.24,2.87,-2.75,1.59,0.00,0.00,0.00,0.00,2
-0.06,0.06,-1.24,4.64,3.60,-2.81,0.00,0.00,0.00,0.00,2
-0.09,0.05,-1.24,-0.24,8.48,3.91,0.00,0.00,0.00,0.00,2
-0.09,0.10,-1.24,2.69,-3.30,-5.80,0.00,0.00,0.00,0.00,2
-0.08,0.07,-1.24,1.10,3.97,-6.84,0.00,0.00,0.00,0.00,2
-0.08,0.05,-1.25,3.11,-0.31,-0.49,0.00,0.00,0.00,0.00,2
-0.07,0.04,-1.24,0.49,5.86,-1.10,0.00,0.00,0.00,0.00,2
-0.09,0.07,-1.24,2.44,0.31,-10.68,0.00,0.00,0.00,0.00,2
-0.12,0.04,-1.26,10.93,-13.24,13.55,0.00,0.00,0.00,0.00,2
-0.07,0.06,-1.24,4.76,2.56,6.77,0.00,0.00,0.00,0.00,2
-0.06,0.06,-1.25,2.01,-2.20,-2.56,0.00,0.00,0.00,0.00,2
-0.06,0.05,-1.25,7.93,-1.59,0.00,0.00,0.00,0.00,0.00,2
-0.07,0.07,-1.23,-5.25,-2.38,1.04,0.00,0.00,0.00,0.00,2
-0.08,0.05,-1.20,2.32,6.10,13.43,0.00,0.00,0.00,0.00,2
-0.09,0.09,-1.24,2.93,-0.06,2.44,0.00,0.00,0.00,0.00,2
-0.06,0.04,-1.28,-1.95,-14.83,3.23,0.00,0.00,0.00,0.00,2
-0.04,0.05,-1.23,4.15,2.50,-0.55,0.00,0.00,0.00,0.00,2
-0.10,0.05,-1.25,2.44,0.67,-10.31,0.00,0.00,0.00,0.00,2
-0.08,0.02,-1.25,2.62,1.77,10.74,0.00,0.00,0.00,0.00,2
-0.07,0.04,-1.24,4.03,-1.46,31.74,0.00,0.00,0.00,0.00,2
-0.05,0.01,-1.25,3.05,0.49,-4.52,0.00,0.00,0.00,0.00,2
-0.03,0.07,-1.25,1.95,0.55,-12.33,0.00,0.00,0.00,0.00,2
-0.07,0.05,-1.24,2.99,0.18,-0.37,0.00,0.00,0.00,0.00,2
-0.08,0.06,-1.24,2.99,-0.55,3.23,0.00,0.00,0.00,0.00,2
-0.06,0.05,-1.25,2.75,0.43,-3.05,0.00,0.00,0.00,0.00,2
-0.07,0.05,-1.24,2.81,-0.12,-0.55,0.00,0.00,0.00,0.00,2
-0.06,0.05,-1.24,2.69,-0.24,-2.26,0.00,0.00,0.00,0.00,2
-0.06,0.05,-1.25,2.81,-0.06,-2.26,0.00,0.00,0.00,0.00,2
-0.06,0.08,-1.23,2.62,0.12,-1.89,0.00,0.00,0.00,0.00,2
-0.06,0.05,-1.24,2.87,0.06,-0.55,0.00,0.00,0.00,0.00,2
-0.06,0.05,-1.25,3.05,0.06,-0.73,0.00,0.00,0.00,0.00,2
-0.06,0.08,-1.24,2.32,0.49,-0.73,0.00,0.00,0.00,0.00,2
-0.07,0.05,-1.24,2.87,-0.06,-0.67,0.00,0.00,0.00,0.00,2
-0.07,0.06,-1.24,2.87,0.18,-0.73,0.00,0.00,0.00,0.00,2
-0.06,0.05,-1.25,2.75,0.24,-0.73,0.00,0.00,0.00,0.00,2
-0.07,0.05,-1.25,3.17,0.06,-0.85,0.00,0.00,0.00,0.00,2
-0.07,0.05,-1.25,2.81,0.06,-0.55,0.00,0.00,0.00,0.00,2
-0.15,-0.01,-1.24,3.60,-2.44,24.78,0.00,0.00,0.00,0.00,2
-0.05,0.07,-1.24,2.44,0.18,-11.96,0.00,0.00,0.00,0.00,2
-0.19,0.23,-1.35,-10.80,10.44,1.46,0.00,0.00,0.00,0.00,2
-0.07,0.05,-1.24,2.99,-0.31,-0.67,0.00,0.00,0.00,0.00,2
-0.06,0.05,-1.25,3.66,1.16,-0.49,0.00,0.00,0.00,0.00,2
-0.15,0.03,-1.27,3.97,-3.17,12.76,0.00,0.00,0.00,0.00,2
-0.09,0.04,-1.25,0.85,5.07,-0.18,0.00,0.00,0.00,0.00,2
-0.08,0.06,-1.25,1.77,3.66,-0.24,0.00,0.00,0.00,0.00,2
-0.09,0.05,-1.26,4.46,-3.42,-0.85,0.00,0.00,0.00,0.00,2
-0.07,0.06,-1.24,1.83,1.65,-0.55,0.00,0.00,0.00,0.00,2
-0.07,0.05,-1.25,2.50,4.52,-0.43,0.00,0.00,0.00,0.00,2
-0.04,0.03,-1.25,2.62,6.16,-14.16,0.00,0.00,0.00,0.00,2
-0.10,0.08,-1.23,2.75,-0.06,13.24,0.00,0.00,0.00,0.00,2
-0.06,0.04,-1.23,3.54,1.40,-0.24,0.00,0.00,0.00,0.00,2
-0.07,0.05,-1.24,2.93,0.12,-0.61,0.00,0.00,0.00,0.00,2
-0.08,0.05,-1.25,3.23,-0.92,-0.67,0.00,0.00,0.00,0.00,2
-0.08,0.05,-1.23,2.99,0.55,-4.15,0.00,0.00,0.00,0.00,2
-0.08,0.05,-1.24,3.36,-0.18,4.52,0.00,0.00,0.00,0.00,2
-0.01,0.10,-1.24,12.57,-27.40,13.98,0.00,0.00,0.00,0.00,2
-0.06,0.06,-1.23,2.75,0.31,5.80,0.00,0.00,0.00,0.00,2
-0.11,0.05,-1.25,3.17,0.12,10.38,0.00,0.00,0.00,0.00,2
-0.08,0.05,-1.25,2.50,-1.28,-0.49,0.00,0.00,0.00,0.00,2
-0.10,0.05,-1.26,2.93,-1.71,-0.61,0.00,0.00,0.00,0.00,2
-0.03,0.00,-1.22,4.03,10.01,7.87,0.00,0.00,0.00,0.00,2
-0.06,0.05,-1.22,2.75,0.12,-0.67,0.00,0.00,0.00,0.00,2
-0.07,0.05,-1.24,2.81,0.00,-0.61,0.00,0.00,0.00,0.00,2
-0.08,0.05,-1.24,3.05,-0.24,-0.55,0.00,0.00,0.00,0.00,2
-0.07,0.05,-1.25,2.38,0.06,-0.92,0.00,0.00,0.00,0.00,2
-0.10,0.03,-1.24,-3.17,16.60,17.58,0.31,0.00,0.00,0.00,2
-0.13,0.03,-1.24,0.61,3.66,-8.91,0.00,0.00,0.00,0.00,2
-0.15,0.01,-1.25,-13.24,5.13,-54.81,0.00,0.00,0.00,0.00,2
-0.07,0.05,-1.24,2.93,0.24,-0.73,0.00,0.00,0.00,0.00,2
-0.10,0.06,-1.26,4.03,-3.23,-0.98,0.00,0.00,0.00,0.00,2
-0.07,0.10,-1.21,-1.53,25.45,106.75,0.00,0.00,0.00,0.00,2
-0.15,0.02,-1.24,2.93,-0.37,-0.92,0.00,0.00,0.00,0.00,2
-0.16,0.02,-1.24,3.05,-1.59,-0.85,0.00,0.00,0.00,0.00,2
-0.16,0.02,-1.24,2.93,0.85,-0.49,0.00,0.00,0.00,0.00,2
-0.18,0.00,-1.22,10.99,-9.28,-2.14,0.00,0.00,0.00,0.00,2
-0.12,-0.04,-1.15,8.85,-6.71,1.10,0.00,0.00,0.00,0.00,2
-0.12,0.04,-1.25,7.93,-11.66,-1.40,0.00,0.00,0.00,0.00,2
-0.11,0.04,-1.24,3.42,-0.37,-0.73,0.00,0.00,0.00,0.00,2
-0.16,0.03,-1.24,19.96,-44.13,-12.94,0.00,0.00,0.00,0.00,2
-0.05,0.05,-1.27,0.73,6.04,-0.43,0.00,0.00,0.00,0.00,2
-0.07,0.05,-1.24,5.07,-5.68,-0.92,0.00,0.00,0.00,0.00,2
-0.08,0.06,-1.25,0.00,4.33,-0.49,0.00,0.00,0.00,0.00,2
-0.06,0.07,-1.24,3.30,-0.73,6.59,0.00,0.00,0.00,0.00,2
-0.07,0.05,-1.24,2.81,0.24,-0.67,0.00,0.00,0.00,0.00,2
-0.09,0.05,-1.23,-8.91,23.25,-51.39,0.00,0.00,0.00,0.00,2
-0.10,0.03,-1.25,0.92,2.93,-13.79,0.00,0.00,0.00,0.00,2
-0.08,0.06,-1.24,2.26,0.24,-0.98,0.43,0.00,0.00,0.00,2
-0.20,0.00,-1.23,8.67,3.30,77.64,0.00,0.00,0.00,0.00,2
-0.10,0.03,-1.24,1.59,-1.40,-17.33,0.00,0.00,0.00,0.00,2
-0.05,0.09,-1.24,2.81,0.85,3.97,0.00,0.00,0.00,0.00,2
-0.08,0.05,-1.24,0.18,6.90,-0.31,0.50,0.00,0.00,0.00,2
-0.07,0.06,-1.24,2.81,0.37,-0.55,0.00,0.00,0.00,0.00,2
-0.07,0.05,-1.23,2.93,0.18,-0.49,0.00,0.00,0.00,0.00,2
-0.08,0.05,-1.24,3.05,-0.06,-0.92,0.00,0.00,0.00,0.00,2
-0.07,0.05,-1.24,2.93,-0.06,-0.73,0.00,0.00,0.00,0.00,2
-0.07,0.06,-1.25,2.93,-0.18,-0.67,0.00,0.00,0.00,0.00,2
-0.07,0.05,-1.24,2.75,0.31,-0.55,0.00,0.00,0.00,0.00,2
-0.07,0.05,-1.25,2.93,-4.09,-0.92,0.00,0.00,0.00,0.00,2
-0.04,0.05,-1.22,2.93,-0.43,-0.98,0.00,0.00,0.00,0.00,2
-0.07,0.05,-1.24,2.93,0.12,-0.79,0.00,0.00,0.00,0.00,2
-0.06,0.06,-1.24,2.75,0.37,-0.43,0.00,0.00,0.00,0.00,2
-0.07,0.05,-1.24,2.75,0.06,-0.55,0.00,0.00,0.00,0.00,2
-0.07,0.05,-1.25,3.05,-0.06,-0.92,0.00,0.00,0.00,0.00,2
-0.07,0.05,-1.25,2.62,-0.37,-0.67,0.00,0.00,0.00,0.00,2
-0.07,0.05,-1.24,2.50,-0.18,-0.67,0.00,0.00,0.00,0.00,2
-0.08,0.05,-1.24,2.93,-0.18,-2.20,0.00,0.00,0.64,0.00,2
-0.07,0.05,-1.25,2.87,0.00,-0.73,0.00,0.00,0.73,0.00,2
-0.07,0.06,-1.24,2.75,0.00,-0.61,0.00,0.00,0.54,0.00,2
-0.07,0.05,-1.24,3.11,-0.06,-0.61,0.00,0.00,0.49,0.47,2
-0.07,0.06,-1.25,2.81,0.06,-0.79,0.00,0.00,0.35,0.68,2
-0.07,0.05,-1.25,2.93,-0.12,-0.67,0.00,0.00,0.27,0.72,2
-0.07,0.05,-1.24,2.87,0.12,-0.43,0.00,0.00,0.18,0.78,2
-0.07,0.05,-1.24,2.81,-0.12,-0.73,0.00,0.00,0.83,0.00,2
-0.07,0.06,-1.25,2.93,-0.18,-0.73,0.00,0.00,0.00,0.00,2
-0.07,0.05,-1.25,3.05,-0.31,-0.49,0.00,0.00,0.00,0.00,2
-0.08,0.05,-1.24,2.87,0.00,-0.61,0.00,0.00,0.00,0.00,2
-0.07,0.05,-1.25,2.62,0.06,-0.92,0.00,0.00,0.00,0.00,2
-0.07,0.05,-1.23,3.05,-0.79,-0.61,0.00,0.00,0.00,0.00,2
-0.07,0.05,-1.24,2.99,-0.31,-0.73,0.00,0.00,0.00,0.00,2
-0.08,0.05,-1.24,2.14,-0.24,-31.49,0.00,0.00,0.00,0.00,2
-0.08,0.05,-1.25,2.50,-2.87,-0.61,0.00,0.00,0.00,0.00,2
-0.03,0.09,-1.25,2.26,2.62,-4.94,0.00,0.00,0.00,0.00,2
-0.11,0.01,-1.24,3.17,-1.53,3.42,0.00,0.00,0.00,0.00,2
-0.05,0.05,-1.23,2.38,1.04,-11.11,0.00,0.00,0.00,0.00,2
0.03,0.00,-1.25,3.17,0.37,-1.22,0.00,0.00,0.00,0.00,2
-0.14,0.04,-1.25,1.95,6.53,-36.99,0.00,0.00,0.00,0.00,2
-0.08,0.09,-1.23,3.48,-1.40,31.25,0.00,0.00,0.00,0.00,2
-0.04,0.06,-1.24,3.17,-0.61,4.09,0.00,0.00,0.00,0.00,2
-0.05,0.06,-1.24,2.75,0.06,-0.55,0.00,0.00,0.00,0.00,2
-0.07,0.06,-1.25,3.05,0.67,-1.22,0.00,0.00,0.00,0.00,2
-0.07,0.05,-1.24,2.62,0.61,-0.55,0.00,0.00,0.00,0.00,2
-0.08,0.05,-1.25,3.48,-1.28,0.06,0.00,0.00,0.00,0.00,2
-0.10,0.04,-1.23,0.67,8.24,-37.72,0.00,0.00,0.00,0.00,2
-0.11,0.06,-1.24,3.66,-0.85,16.17,0.15,0.00,0.00,0.00,2
-0.07,0.05,-1.24,3.11,0.12,-0.73,0.06,0.00,0.00,0.00,2
-0.05,0.06,-1.24,2.81,0.18,0.37,0.09,0.00,0.00,0.00,2
-0.06,0.06,-1.25,3.11,0.00,-0.98,0.08,0.00,0.00,0.00,2
-0.05,0.06,-1.24,3.17,0.12,9.16,0.17,0.00,0.00,0.00,2
-0.02,0.09,-1.35,-14.16,-35.34,36.68,0.13,0.00,0.00,0.00,2
-0.13,0.03,-1.27,2.56,-7.51,-3.36,0.10,0.00,0.00,0.00,2
-0.06,0.06,-1.24,2.87,0.24,-0.85,0.00,0.00,0.00,0.00,2
-0.06,0.05,-1.23,1.22,4.82,5.31,0.00,0.00,0.00,0.00,2
-0.07,0.06,-1.25,2.69,-0.31,-5.43,0.00,0.00,0.00,0.00,2
-0.07,0.05,-1.25,2.75,-2.32,-0.73,0.00,0.00,0.00,0.00,2
-0.08,0.06,-1.26,2.75,-1.22,-0.49,0.00,0.00,0.00,0.00,2
-0.05,0.06,-1.23,8.30,-13.37,-4.82,0.00,0.00,0.00,0.00,2
-0.09,0.03,-1.22,3.30,-1.16,-0.98,0.00,0.00,0.00,0.00,2
-0.07,0.06,-1.25,2.87,0.00,2.69,0.00,0.00,0.00,0.00,2
-0.07,0.05,-1.24,2.99,2.81,-0.67,0.00,0.00,0.00,0.00,2
-0.07,0.05,-1.23,2.56,0.55,-0.24,0.00,0.00,0.00,0.00,2
-0.07,0.05,-1.24,2.87,0.24,-0.73,0.00,0.00,0.00,0.00,2
-0.09,0.06,-1.26,2.62,-1.65,-0.73,0.00,0.00,0.00,0.00,2
-0.06,0.06,-1.22,2.32,1.71,-0.67,0.00,0.00,0.00,0.00,2
-0.04,0.02,-1.23,5.13,-1.10,27.95,0.00,0.00,0.00,0.00,2
-0.06,0.06,-1.25,6.16,-8.06,-1.34,4.68,0.00,0.00,0.00,2
-0.17,0.01,-1.24,-0.67,6.59,0.79,1.48,0.00,0.00,0.00,2
-0.07,0.06,-1.24,5.37,-6.29,-3.66,0.00,0.00,0.00,0.00,2
-0.09,0.04,-1.25,3.11,0.00,-0.61,0.00,0.00,0.00,0.00,2
-0.09,0.05,-1.25,3.23,-0.92,-0.73,0.00,0.00,0.00,0.00,2
-0.07,0.06,-1.24,2.81,0.49,-0.79,0.00,0.00,0.00,0.00,2
-0.06,0.04,-1.23,3.36,2.14,-0.55,0.00,0.00,0.00,0.00,2
-0.11,0.04,-1.26,8.24,-11.84,-3.05,0.00,0.00,0.00,0.00,2
-0.04,0.05,-1.23,2.56,2.50,-0.31,0.00,0.00,0.00,0.00,2
-0.09,0.02,-1.23,-7.81,27.83,19.90,0.00,0.00,0.00,0.00,2
-0.15,0.02,-1.26,2.08,-3.66,-2.81,0.00,0.00,0.00,0.00,2
-0.17,-0.02,-1.22,5.98,-5.37,4.15,0.00,0.00,0.00,0.00,2
-0.03,0.06,-1.22,1.89,0.31,-9.28,0.00,0.00,0.00,0.00,2
-0.10,0.04,-1.24,-0.85,8.79,1.77,0.00,0.00,0.00,0.00,2
-0.11,0.04,-1.24,3.23,-0.67,-0.43,0.00,0.00,0.00,0.00,2
-0.06,0.06,-1.23,-2.26,12.57,0.24,0.00,0.00,0.00,0.00,2
-0.06,0.06,-1.25,1.89,10.86,10.25,0.00,0.00,0.00,0.00,2
-0.06,0.02,-1.24,2.20,1.40,3.60,0.00,0.00,0.00,0.00,2
-0.05,0.06,-1.24,4.15,-2.38,49.62,0.00,0.00,0.00,0.00,2
-0.06,0.05,-1.24,2.26,-7.57,-1.28,0.00,0.00,0.00,0.00,2
-0.07,0.08,-1.21,2.01,-4.09,-0.06,0.00,0.00,0.00,0.00,2
-0.08,0.05,-1.25,3.05,-0.37,-0.43,0.00,0.00,0.00,0.00,2
-0.01,0.09,-1.24,-2.38,13.55,-1.95,0.10,0.00,0.00,0.00,2
-0.18,-0.01,-1.23,3.91,-1.89,-0.92,0.70,0.00,0.00,0.00,2
-0.05,0.02,-1.24,1.53,-2.87,-1.28,0.31,0.00,0.00,0.00,2
-0.10,0.03,-1.25,7.57,-12.02,-0.79,0.31,0.00,0.00,0.00,2
-0.19,-0.04,-1.25,-15.32,43.33,4.70,0.83,0.00,0.00,0.00,2
-0.04,0.08,-1.18,2.01,3.48,-4.64,0.00,0.00,0.00,0.00,2
-0.07,0.06,-1.26,3.42,-0.12,-0.79,0.00,0.00,0.00,0.00,2
-0.08,-0.02,-1.26,2.38,-5.00,-15.50,0.00,0.00,0.00,0.00,2
-0.15,0.02,-1.24,2.20,1.65,-0.49,0.00,0.00,0.00,0.00,2
-0.16,0.01,-1.24,3.11,-0.73,1.10,0.00,0.00,0.00,0.00,2
-0.19,0.01,-1.24,9.95,-1.34,-10.25,0.00,0.00,0.00,0.00,2
-0.17,0.02,-1.24,3.60,-1.53,-0.06,0.00,0.00,0.00,0.00,2
-0.17,0.05,-1.27,-28.08,-13.67,1.22,0.00,0.00,0.00,0.00,2
-0.17,0.01,-1.22,-1.77,-6.53,11.29,0.00,0.00,0.00,0.00,2
-0.26,-0.01,-1.18,-16.24,8.73,-67.75,0.00,0.00,0.00,0.00,2
-0.10,0.05,-1.23,-25.88,-0.67,-10.01,0.00,0.00,0.00,0.00,2
-0.13,0.03,-1.24,-0.18,2.38,-9.40,0.00,0.00,0.00,0.00,2
-0.16,0.01,-1.21,7.57,-3.23,8.36,0.00,0.00,0.00,0.00,2
-0.17,-0.00,-1.23,4.70,-1.53,-0.98,0.00,0.00,0.00,0.00,2
-0.07,0.05,-1.24,2.14,2.38,-1.10,0.00,0.00,0.00,0.00,2
-0.16,0.00,-1.24,6.96,-6.16,-5.86,0.00,0.00,0.00,0.00,2
-0.04,0.08,-1.25,2.87,2.01,-1.34,0.00,0.00,0.00,0.00,2
-0.07,0.07,-1.25,2.81,-2.62,-0.92,0.00,0.00,0.00,0.00,2
-0.09,-0.02,-1.38,2.01,1.40,-0.92,0.00,0.00,0.00,0.00,2
-0.05,0.04,-1.25,8.79,-13.37,-6.23,0.00,0.00,0.00,0.00,2
-0.12,0.03,-1.28,1.04,0.92,-30.46,0.00,0.00,0.00,0.00,2
-0.05,0.06,-1.25,4.15,-2.81,-1.04,0.00,0.00,0.00,0.00,2
-0.15,0.06,-1.36,1.89,-12.27,-18.55,0.00,0.00,0.00,0.00,2
-0.10,0.04,-1.26,3.17,-5.31,6.71,0.00,0.00,0.00,0.00,2
-0.07,0.04,-1.19,0.98,5.13,3.78,0.00,0.00,0.00,0.00,2
-0.02,0.09,-1.18,3.05,6.77,-1.89,0.00,0.00,0.00,0.00,2
-0.02,0.06,-1.23,1.83,4.21,-44.56,0.00,0.00,0.00,0.00,2
-0.11,0.10,-1.24,3.91,-1.59,28.99,0.00,0.00,0.00,0.00,2
-0.06,0.08,-1.23,8.00,-3.91,22.34,0.00,0.00,0.00,0.00,2
-0.06,0.09,-1.24,3.11,1.10,2.81,0.00,0.00,0.00,0.00,2
-0.09,0.05,-1.24,1.28,3.54,-0.43,0.00,0.00,0.00,0.00,2
-0.09,0.05,-1.25,3.97,-1.34,-1.53,0.00,0.00,0.00,0.00,2
-0.06,0.04,-1.24,3.66,-0.49,-0.92,0.00,0.00,0.00,0.00,2
-0.13,0.14,-1.21,27.89,-4.15,-9.52,0.00,0.00,0.00,0.00,2
-0.16,0.06,-1.23,-12.39,40.89,16.30,0.00,0.00,0.00,0.00,2
-0.10,0.03,-1.23,-7.08,24.60,0.67,0.00,0.00,0.00,0.00,2
-0.08,0.07,-1.26,3.54,-0.79,7.51,0.00,0.00,0.00,0.00,2
-0.08,0.01,-1.33,-16.60,23.01,-26.12,0.00,0.00,0.00,0.00,2
-0.10,0.08,-1.24,-4.88,19.65,7.32,0.00,0.00,0.00,0.00,2
-0.10,0.03,-1.25,-7.87,8.48,-1.16,0.00,0.00,0.00,0.00,2
-0.05,0.02,-1.25,1.71,5.55,12.39,0.00,0.00,0.00,0.00,2
-0.07,0.06,-1.24,3.05,-0.24,-0.73,0.00,0.00,0.00,0.00,2
-0.04,0.03,-1.22,7.02,-8.54,4.52,0.00,0.00,0.00,0.00,2
-0.02,0.09,-1.23,-9.09,-24.60,-7.32,0.00,0.00,0.00,0.00,2
-0.06,0.06,-1.23,3.54,-0.24,-0.92,0.00,0.00,0.00,0.00,2
-0.08,0.04,-1.25,5.68,-6.41,0.73,0.00,0.00,0.00,0.00,2
-0.09,0.15,-1.25,8.48,-1.59,-9.09,0.00,0.00,0.00,0.00,2
-0.05,0.03,-1.25,-39.67,10.19,-29.72,0.00,0.00,0.00,0.00,2
-0.07,0.06,-1.25,2.99,-0.37,-0.85,0.00,0.00,0.00,0.00,2
-0.07,0.05,-1.24,-4.46,17.33,-5.07,0.00,0.00,0.00,0.00,2
-0.06,0.06,-1.25,3.11,0.18,-0.55,0.00,0.00,0.00,0.00,2
-0.07,0.05,-1.24,2.87,-0.31,-0.67,0.00,0.00,0.00,0.00,2
-0.02,-0.03,-1.25,3.17,-0.49,-4.82,0.00,0.00,0.00,0.00,2
-0.06,0.05,-1.24,3.23,0.18,-0.85,0.00,0.00,0.00,0.00,2
-0.06,0.05,-1.24,2.99,0.37,-0.61,0.00,0.00,0.00,0.00,2
-0.07,0.05,-1.24,3.66,-2.56,-0.92,0.00,0.00,0.00,0.00,2
-0.20,-0.00,-1.24,-10.38,28.87,0.98,0.00,0.00,0.00,0.00,2
-0.09,0.02,-1.25,6.41,-9.34,-1.83,0.00,0.00,0.00,0.00,2
-0.05,0.07,-1.25,-4.15,16.30,-5.68,0.00,0.00,0.00,0.00,2
-0.11,0.04,-1.25,3.97,0.18,18.55,0.00,0.00,0.00,0.00,2
0.08,0.07,-1.21,3.11,0.92,14.53,0.00,0.00,0.00,0.00,2
-0.20,-0.01,-1.24,-13.49,39.73,7.26,0.00,0.00,0.00,0.00,2
-0.10,0.03,-1.24,1.46,4.58,1.53,0.00,0.00,0.00,0.00,2
-0.08,0.05,-1.24,3.97,-6.77,-22.09,0.00,0.00,0.00,0.00,2
-0.06,0.05,-1.28,4.76,-3.42,2.56,0.00,0.00,0.00,0.00,2
-0.06,0.06,-1.23,1.89,1.71,-0.61,0.00,0.00,0.00,0.00,2
-0.09,0.04,-1.24,-0.43,7.87,-1.53,0.00,0.00,0.00,0.00,2
-0.07,0.05,-1.24,1.83,1.46,-5.62,0.00,0.00,0.00,0.00,2
-0.03,0.09,-1.24,2.01,2.38,-1.16,0.00,0.00,0.00,0.00,2
-0.03,0.05,-1.23,9.40,5.31,-4.76,0.00,0.00,0.00,0.00,2
-0.04,0.10,-1.25,2.62,-1.34,-4.76,0.00,0.00,0.00,0.00,2
-0.02,0.05,-1.32,8.24,-2.38,3.85,0.00,0.00,0.00,0.00,2
-0.05,0.04,-1.25,-4.39,17.76,-1.65,0.00,0.00,0.00,0.00,2
-0.07,0.07,-1.25,1.95,0.98,1.46,0.00,0.00,0.00,0.00,2
-0.11,-0.00,-1.24,8.06,-14.34,1.46,0.00,0.00,0.00,0.00,2
-0.03,0.05,-1.24,2.01,1.34,-10.74,0.00,0.00,0.00,0.00,2
-0.03,0.05,-1.21,2.01,4.88,-13.24,0.00,0.00,0.00,0.00,2
-0.08,0.04,-1.24,2.87,1.04,-3.36,0.00,0.00,0.00,0.00,2
-0.03,0.07,-1.20,3.23,5.25,7.20,0.00,0.00,0.00,0.00,2
-0.06,0.06,-1.24,2.93,-0.18,-0.85,0.00,0.00,0.00,0.00,2
-0.06,0.05,-1.24,2.87,0.31,-0.61,0.00,0.00,0.00,0.00,2
-0.08,-0.02,-1.27,-13.79,1.89,-91.25,0.00,0.00,0.00,0.00,2
-0.06,0.06,-1.24,2.87,0.00,-0.55,0.00,0.00,0.00,0.00,2
-0.05,0.05,-1.23,2.93,0.24,-0.61,0.00,0.00,0.00,0.00,2
-0.09,0.00,-1.25,2.38,9.28,36.93,0.00,0.00,0.00,0.00,2
-0.07,0.06,-1.25,2.81,0.24,-0.73,0.00,0.00,0.00,0.00,2
-0.06,0.05,-1.24,2.99,1.40,-0.73,0.00,0.00,0.00,0.00,2
-0.04,0.06,-1.22,3.30,-1.10,-0.73,0.00,0.00,0.00,0.00,2
-0.07,0.05,-1.24,2.87,0.18,-0.92,0.00,0.00,0.00,0.00,2
-0.07,0.06,-1.25,3.42,-0.31,-0.55,0.00,0.00,0.00,0.00,2
-0.03,0.02,-1.20,0.92,-0.18,-42.79,0.00,0.00,0.00,0.00,2
-0.07,0.05,-1.24,3.85,-1.34,-0.61,0.00,0.00,0.00,0.00,2
-0.09,0.02,-1.25,-3.05,-0.12,-17.70,0.00,0.00,0.00,0.00,2
-0.17,0.07,-1.24,2.87,3.72,-5.62,0.00,0.00,0.00,0.00,2
-0.21,-0.00,-1.24,-10.62,-15.87,-6.77,0.00,0.00,0.00,0.00,2
-0.82,0.06,-1.00,4.70,13.18,-37.41,0.00,0.00,0.00,0.00,2
-0.16,0.01,-1.18,-14.10,2.44,14.22,0.00,0.00,0.00,0.00,2
-0.03,0.02,-1.21,24.54,-41.50,-18.92,0.00,0.00,0.00,0.00,2
-0.04,0.08,-1.29,2.75,0.24,-0.85,0.00,0.00,0.00,0.00,2
-0.09,0.12,-1.24,0.12,10.44,-97.96,0.00,0.00,0.00,0.00,2
-0.01,0.08,-1.20,4.76,5.25,74.46,0.00,0.00,0.00,0.00,2
-0.07,0.05,-1.24,2.75,-0.18,-0.67,0.00,0.00,0.00,0.00,2
-0.22,0.02,-1.22,3.48,-1.89,-0.12,0.00,0.00,0.00,0.00,2
-0.04,0.04,-1.22,3.48,6.41,6.90,0.00,0.00,0.00,0.00,2
-0.07,0.05,-1.21,3.23,9.46,-3.72,0.00,0.00,0.00,0.00,2
-0.19,0.02,-1.22,2.44,1.22,-6.71,0.00,0.00,0.00,0.00,2
-0.19,0.01,-1.24,2.01,1.16,0.31,0.00,0.00,0.00,0.00,2
-0.21,0.01,-1.27,-4.15,4.39,-29.24,0.00,0.00,0.00,0.00,2
-0.21,0.03,-1.23,4.03,-9.77,-1.16,0.00,0.00,0.00,0.00,2
-0.27,-0.04,-1.23,5.37,10.50,13.24,0.00,0.00,0.00,0.00,2
-0.16,0.06,-1.22,9.46,1.83,3.11,0.00,0.00,0.00,0.00,2
-0.17,-0.00,-1.22,13.18,3.36,9.77,0.00,0.00,0.00,0.00,2
-0.01,0.06,-1.21,2.75,-12.21,1.40,0.00,0.00,0.00,0.00,2
-0.11,0.04,-1.24,2.69,1.04,-3.91,0.00,0.00,0.00,0.00,2
-0.18,0.01,-1.22,-0.43,3.05,-29.91,0.00,0.00,0.00,0.00,2
-0.06,0.06,-1.24,-0.79,-11.47,8.61,0.00,0.00,0.00,0.00,2
-0.03,0.06,-1.21,2.14,5.37,-0.73,0.00,0.00,0.00,0.00,2
-0.08,0.03,-1.26,3.17,1.28,-0.43,0.00,0.00,0.00,0.00,2
-0.12,0.02,-1.25,3.91,-5.07,-1.59,0.00,0.00,0.00,0.00,2
-0.11,0.04,-1.24,1.16,4.27,-3.11,0.00,0.00,0.00,0.00,2
-0.08,0.05,-1.25,3.17,4.03,-0.55,0.00,0.00,0.00,0.00,2
-0.02,0.08,-1.23,3.42,1.83,5.92,0.00,0.00,0.00,0.00,2
-0.12,0.10,-1.19,8.24,-10.62,25.70,0.00,0.00,0.00,0.00,2
-0.08,0.04,-1.22,1.46,1.71,-8.48,0.00,0.00,0.00,0.00,2
-0.06,0.05,-1.25,3.11,0.24,1.71,0.00,0.00,0.00,0.00,2
-0.08,0.05,-1.23,1.65,-0.31,1.34,0.00,0.00,0.00,0.00,2
-0.06,0.05,-1.21,3.91,8.36,0.37,0.00,0.00,0.00,0.00,2
-0.26,0.01,-1.26,3.36,-5.37,60.79,0.00,0.00,0.00,0.00,2
-0.13,0.03,-1.22,7.51,-2.56,19.29,0.00,0.00,0.00,0.00,2
-0.13,0.04,-1.25,-0.49,5.19,0.18,0.00,0.00,0.00,0.00,2
0.12,0.05,-1.14,2.69,12.45,13.18,0.00,0.00,0.00,0.00,2
-0.02,0.02,-1.25,-5.62,4.21,-2.01,0.00,0.00,0.00,0.00,2
-0.08,-0.01,-1.26,-5.19,3.48,-3.72,0.00,0.00,0.00,0.00,2
-0.13,-0.06,-1.23,6.71,6.41,13.92,0.00,0.00,0.00,0.00,2
-0.11,-0.02,-1.24,3.36,22.89,19.35,0.00,0.00,0.00,0.00,2
-0.08,0.05,-1.25,2.75,0.18,-0.49,0.00,0.00,0.00,0.00,2
-0.16,-0.07,-1.23,1.95,6.41,-28.44,0.00,0.00,0.00,0.00,2
-0.07,0.08,-1.24,4.03,-2.14,-2.75,0.00,0.00,0.00,0.00,2
0.03,0.08,-1.21,-0.24,-35.46,-9.34,0.00,0.00,0.00,0.00,2
-0.10,0.06,-1.24,1.83,2.75,10.93,0.00,0.00,0.00,0.00,2
-0.11,0.05,-1.24,-5.62,15.08,0.24,0.00,0.00,0.00,0.00,2
-0.09,0.06,-1.25,0.24,6.90,-3.72,0.00,0.00,0.00,0.00,2
-0.05,0.06,-1.22,5.00,19.47,14.53,0.00,0.00,0.00,0.00,2
-0.10,0.02,-1.24,-2.32,-25.27,-0.43,0.00,0.00,0.00,0.00,2
-0.10,0.05,-1.24,2.32,-10.19,-9.95,0.00,0.00,0.00,0.00,2
-0.04,-0.05,-1.25,0.98,-1.28,2.38,0.00,0.00,0.00,0.00,2
-0.03,-0.02,-1.23,21.61,3.60,-3.60,0.00,0.00,0.00,0.00,2
-0.02,-0.04,-1.22,6.29,2.56,-6.16,0.00,0.00,0.00,0.00,2
-0.21,-0.06,-1.23,-18.98,19.23,-6.35,0.00,0.00,0.00,0.00,2
-0.19,0.01,-1.24,14.10,-8.36,22.03,0.00,0.00,0.00,0.00,2
-0.09,0.07,-1.25,2.81,2.44,-3.60,0.00,0.00,0.00,0.00,2
-0.10,0.01,-1.23,2.50,1.40,1.77,0.00,0.00,0.00,0.00,2
-0.10,-0.02,-1.25,3.54,-3.42,20.14,0.00,0.00,0.00,0.00,2
-0.04,0.11,-1.31,-12.02,-0.67,55.91,0.32,0.00,0.00,0.00,2
-0.08,0.05,-1.25,2.93,-0.12,-0.67,0.00,0.00,0.00,0.00,2
0.01,0.16,-1.27,1.34,-3.36,-69.95,0.00,0.00,0.00,0.00,2
-0.06,0.04,-1.24,-1.53,16.48,6.71,0.00,0.00,0.00,0.00,2
-0.05,0.05,-1.22,2.14,2.87,2.44,0.00,0.00,0.00,0.00,2
-0.08,0.05,-1.24,2.99,0.61,-0.73,0.00,0.00,0.00,0.00,2
-0.08,0.04,-1.24,2.69,-0.24,-0.73,0.00,0.00,0.00,0.00,2
-0.08,0.05,-1.24,2.99,0.12,-0.92,0.00,0.00,0.00,0.00,2
-0.08,0.04,-1.24,2.99,0.00,-0.55,0.00,0.00,0.00,0.00,2
-0.08,0.05,-1.24,2.87,0.00,-0.67,0.00,0.00,0.00,0.00,2
-0.08,0.04,-1.24,2.99,0.00,-0.79,0.00,0.00,0.00,0.00,2
-0.05,0.04,-1.21,3.23,5.13,-0.61,0.00,0.00,0.00,0.00,2
-0.08,0.05,-1.25,2.87,-0.06,-0.79,0.00,0.00,0.00,0.00,2
-0.07,0.05,-1.23,3.05,0.06,-0.92,0.00,0.00,0.00,0.00,2
-0.08,0.05,-1.23,2.87,0.00,-0.55,0.00,0.00,0.00,0.00,2
-0.08,0.05,-1.24,2.93,0.12,-0.67,0.00,0.00,0.00,0.00,2
-0.07,0.04,-1.22,2.26,0.31,-6.10,0.00,0.00,0.00,0.00,2
-0.05,0.05,-1.24,2.69,0.06,-0.67,0.00,0.00,0.00,0.00,2
-0.05,0.04,-1.25,4.46,3.30,-1.16,0.00,0.00,0.00,0.00,2
-0.06,0.05,-1.24,2.99,-0.06,-0.79,0.00,0.00,0.00,0.00,2
-0.06,0.05,-1.25,2.81,-0.06,-0.85,0.00,0.00,0.00,0.00,2
-0.05,0.06,-1.25,2.93,-0.12,-0.24,0.00,0.00,0.00,0.00,2
-0.04,0.06,-1.25,2.93,0.12,-0.37,0.00,0.00,0.00,0.00,2
-0.04,0.06,-1.25,2.87,0.31,-0.55,0.00,0.00,0.00,0.00,2
-0.04,0.06,-1.25,2.93,0.12,-0.24,0.00,0.00,0.00,0.00,2
-0.04,0.05,-1.24,2.93,0.18,-0.31,0.00,0.00,0.00,0.00,2
-0.04,0.06,-1.24,2.75,0.24,-0.43,0.00,0.00,0.00,0.00,2
-0.04,0.06,-1.24,2.87,-0.06,-0.43,0.00,0.00,0.00,0.00,2
-0.04,0.06,-1.23,3.11,0.12,-0.37,0.00,0.00,0.00,0.00,2
-0.04,0.06,-1.25,2.69,-0.06,-0.31,0.00,0.00,0.00,0.00,2
-0.04,0.06,-1.25,2.75,0.12,-0.55,0.00,0.00,0.00,0.00,2
-0.05,0.06,-1.24,3.05,0.12,-0.31,0.00,0.00,0.00,0.00,2
-0.04,0.06,-1.24,2.99,0.12,-0.61,0.00,0.00,0.00,0.00,2
-0.05,0.06,-1.25,2.69,0.37,-0.06,0.00,0.00,0.00,0.00,2
-0.08,0.08,-1.28,2.08,1.10,-0.12,0.00,0.00,0.00,0.00,2
-0.04,0.06,-1.24,2.81,0.49,-0.12,0.00,0.00,0.00,0.00,2
-0.01,0.07,-1.23,3.23,2.32,0.18,0.00,0.00,0.00,0.00,2
-0.04,0.06,-1.24,2.81,0.92,-0.18,0.00,0.00,0.00,0.00,2
-0.05,0.06,-1.25,2.75,-0.06,-0.18,0.00,0.00,0.00,0.00,2
-0.05,0.06,-1.24,2.93,0.31,-0.31,0.00,0.00,0.00,0.00,2
-0.04,0.06,-1.25,2.93,-0.06,-0.37,0.00,0.00,0.00,0.00,2
-0.05,0.05,-1.25,2.75,0.00,-0.55,0.00,0.00,0.00,0.00,2
-0.04,0.06,-1.25,2.99,0.06,-0.61,0.00,0.00,0.00,0.00,2
-0.05,0.06,-1.25,2.81,0.00,-0.18,0.00,0.00,0.00,0.00,2
-0.05,0.06,-1.24,2.69,0.12,-0.18,0.00,0.00,0.00,0.00,2
-0.04,0.06,-1.24,2.69,-0.12,-0.49,0.00,0.00,0.00,0.00,2
-0.04,0.06,-1.24,2.75,0.18,-0.31,0.00,0.00,0.00,0.00,2
-0.04,0.06,-1.25,2.75,-0.06,-0.24,0.00,0.00,0.00,0.00,2
-0.04,0.06,-1.24,3.11,-0.06,-0.37,0.00,0.00,0.00,0.00,2
-0.04,0.06,-1.25,2.75,0.00,-0.24,0.00,0.00,0.00,0.00,2
-0.04,0.06,-1.25,2.69,0.12,-0.43,0.00,0.00,0.00,0.00,2
-0.04,0.06,-1.24,3.17,-0.12,-0.31,0.00,0.00,0.00,0.00,2
-0.05,0.06,-1.25,2.81,0.18,-0.49,0.00,0.00,0.00,0.00,2
-0.05,0.06,-1.25,2.69,-0.12,-0.12,0.00,0.00,0.00,0.00,2
-0.05,0.06,-1.25,2.81,0.18,-0.37,0.00,0.00,0.00,0.00,2
-0.04,0.06,-1.25,2.99,0.31,-0.37,0.00,0.00,0.00,0.00,2
-0.04,0.06,-1.24,2.87,-0.06,-0.49,0.00,0.00,0.00,0.00,2
-0.04,0.06,-1.25,2.75,0.31,-0.37,0.00,0.00,0.00,0.00,2
-0.04,0.06,-1.25,2.69,0.06,-0.31,0.00,0.00,0.00,0.00,2
-0.04,0.06,-1.24,2.75,0.00,-0.43,0.00,0.00,0.00,0.00,2
-0.04,0.06,-1.24,2.87,0.12,-0.61,0.00,0.00,0.00,0.00,2
-0.04,0.06,-1.24,2.99,-0.24,-0.24,0.00,0.00,0.00,0.00,2
-0.04,0.06,-1.25,2.93,0.12,-0.31,0.00,0.00,0.00,0.00,2
-0.04,0.06,-1.25,2.69,0.12,-0.18,0.00,0.00,0.00,0.00,2
-0.05,0.06,-1.25,2.75,-0.18,-0.18,0.00,0.00,0.00,0.00,2
-0.04,0.06,-1.24,2.87,0.12,-0.43,0.00,0.00,0.00,0.00,2
-0.04,0.06,-1.24,2.69,0.24,-0.43,0.00,0.00,0.00,0.00,2
-0.05,0.06,-1.25,2.75,-0.12,-0.12,0.00,0.00,0.00,0.00,2
-0.04,0.06,-1.25,2.81,-0.24,-0.37,0.00,0.00,0.00,0.00,2
-0.05,0.06,-1.24,2.87,-0.18,-0.37,0.00,0.00,0.00,0.00,2
-0.04,0.06,-1.24,2.93,0.12,-0.31,0.00,0.00,0.00,0.00,2
-0.04,0.06,-1.24,2.99,0.00,-0.31,0.00,0.00,0.00,0.00,2
-0.04,0.05,-1.24,2.56,0.24,-0.31,0.00,0.00,0.00,0.00,2
-0.05,0.02,-1.23,1.59,0.67,0.49,0.00,0.00,0.00,0.00,2
-0.05,0.03,-1.26,4.15,-0.18,-0.31,0.00,0.00,0.00,0.00,2
-0.05,0.04,-1.24,7.08,-6.53,-15.63,0.00,0.00,0.00,0.00,2
-0.05,0.05,-1.25,2.93,-0.73,-0.37,0.00,0.00,0.00,0.00,2
-0.04,0.05,-1.25,2.87,0.24,-0.31,0.00,0.00,0.00,0.00,2
-0.04,0.05,-1.24,2.93,-0.12,-0.61,0.00,0.00,0.00,0.00,2
-0.04,0.06,-1.26,3.05,0.31,-4.88,0.00,0.00,0.00,0.00,2
-0.04,0.06,-1.25,2.62,-0.24,-0.18,0.00,0.00,0.00,0.00,2
-0.05,0.05,-1.25,3.54,-0.18,-7.26,0.00,0.00,0.00,0.00,2
-0.04,0.05,-1.24,3.66,-0.37,-0.31,0.00,0.00,0.00,0.00,2
-0.04,0.05,-1.25,2.69,-0.06,-0.37,0.00,0.00,0.00,0.00,2
-0.04,0.06,-1.25,2.75,-0.73,-0.24,0.00,0.00,0.00,0.00,2
-0.04,0.07,-1.25,3.05,0.49,-0.79,0.00,0.00,0.00,0.00,2
-0.03,0.07,-1.25,2.56,0.55,-0.18,0.00,0.00,0.00,0.00,2
-0.04,0.06,-1.24,3.23,-0.06,0.06,0.00,0.00,0.00,0.00,2
-0.04,0.05,-1.25,2.38,-0.18,-0.24,0.00,0.00,0.00,0.00,2
-0.03,0.05,-1.25,3.11,0.49,-0.31,0.00,0.00,0.00,0.00,2
-0.04,0.06,-1.25,2.44,0.18,-0.18,0.00,0.00,0.00,0.00,2
-0.04,0.05,-1.25,3.11,-0.18,-0.18,0.00,0.00,0.00,0.00,2
-0.03,0.06,-1.25,3.66,1.16,-0.43,0.00,0.00,0.00,0.00,2
-0.04,0.05,-1.25,2.50,0.12,-0.37,0.00,0.00,0.00,0.00,2
-0.04,0.05,-1.24,2.69,-0.06,-0.49,0.00,0.00,0.00,0.00,2
-0.04,0.05,-1.25,3.36,-0.24,-0.31,0.00,0.00,0.00,0.00,2
-0.04,0.06,-1.24,2.93,-0.31,-0.37,0.00,0.00,0.00,0.00,2
-0.04,0.06,-1.24,2.87,-0.18,-0.37,0.00,0.00,0.00,0.00,2
-0.04,0.06,-1.25,2.56,0.24,-0.31,0.00,0.00,0.00,0.00,2
-0.04,0.06,-1.25,2.99,-0.24,-0.24,0.00,0.00,0.00,0.00,2
-0.04,0.06,-1.24,2.75,-0.06,-0.37,0.00,0.00,0.00,0.00,2
-0.04,0.05,-1.24,2.81,-0.12,-0.55,0.00,0.00,0.00,0.00,2
-0.04,0.06,-1.24,2.38,0.31,-0.24,0.00,0.00,0.00,0.00,2
-0.04,0.08,-1.26,1.71,1.34,-0.06,0.00,0.00,0.00,0.00,2
-0.04,0.06,-1.25,3.11,-0.49,-0.12,0.00,0.00,0.00,0.00,2
-0.04,0.05,-1.24,3.11,0.00,-0.37,0.00,0.00,0.00,0.00,2
-0.04,0.05,-1.25,3.42,1.10,-0.37,0.00,0.00,0.00,0.00,2
-0.04,0.06,-1.25,2.81,0.00,-0.24,0.00,0.00,0.25,0.00,2
-0.04,0.05,-1.24,2.75,0.24,-0.31,0.00,0.00,0.45,0.00,2
-0.03,0.05,-1.26,2.81,0.24,-0.49,0.00,0.00,0.44,0.00,2
-0.04,0.06,-1.24,3.42,-0.85,-0.49,0.00,0.00,0.56,0.00,2
-0.04,0.06,-1.25,2.50,0.12,-0.73,0.00,0.00,0.47,0.00,2
-0.05,0.05,-1.24,2.44,0.12,-0.37,0.00,0.00,0.49,0.00,2
-0.04,0.06,-1.25,2.75,0.31,-0.24,0.00,0.00,0.63,0.00,2
-0.05,0.03,-1.23,-12.63,-5.74,-5.37,0.00,0.00,0.70,0.00,2
-0.00,0.04,-1.23,-8.79,22.89,41.26,0.00,0.00,0.76,0.00,2
-0.05,0.06,-1.25,2.62,0.43,-0.24,0.00,0.00,0.82,0.00,2
-0.04,0.06,-1.24,3.17,0.12,-0.24,0.00,0.00,0.92,0.00,2
-0.03,0.06,-1.25,-3.23,12.15,0.00,0.00,0.00,0.98,0.00,2
-0.02,0.07,-1.24,0.00,5.13,-0.24,0.00,0.00,1.01,0.00,2
-0.03,0.39,-1.29,-10.99,-12.88,-2.32,0.00,0.00,0.90,0.00,2
-0.03,0.05,-1.25,2.50,0.85,-0.49,0.00,0.00,0.89,0.00,2
-0.04,0.05,-1.25,2.50,0.43,-0.12,0.00,0.00,0.95,0.00,2
-0.05,0.05,-1.25,3.42,0.00,-0.43,0.00,0.00,1.04,0.00,2
-0.02,0.07,-1.25,2.93,0.12,-0.49,0.00,0.00,1.10,0.00,2
-0.04,0.06,-1.26,2.50,0.79,-0.55,0.00,0.00,1.10,0.00,2
-0.03,0.06,-1.24,2.38,0.43,-0.31,0.00,0.00,1.00,0.00,2
-0.05,0.05,-1.24,-0.06,5.86,-0.12,0.00,0.00,0.95,0.00,2
0.01,0.07,-1.22,3.60,-2.08,0.18,0.00,0.00,0.92,0.00,2
-0.04,0.06,-1.25,2.81,0.43,-0.31,0.00,0.00,0.94,0.00,2
-0.04,0.05,-1.25,3.23,-0.43,-0.24,0.00,0.00,0.92,0.00,2
-0.05,0.05,-1.24,2.44,0.18,-0.31,0.00,0.00,0.96,0.00,2
-0.04,0.06,-1.24,3.05,-0.18,-0.31,0.00,0.00,0.93,0.00,2
-0.04,0.06,-1.24,3.23,-0.43,-0.55,0.00,0.00,0.90,0.00,2
-0.04,0.05,-1.25,2.87,0.06,-0.37,0.00,0.00,0.88,0.00,2
-0.05,0.06,-1.24,2.87,0.00,-0.12,0.00,0.00,0.96,0.00,2
-0.04,0.05,-1.24,2.81,0.18,-0.18,0.00,0.00,0.94,0.00,2
-0.04,0.06,-1.25,3.05,0.37,-0.37,0.00,0.00,0.95,0.00,2
-0.04,0.06,-1.24,2.81,0.18,-0.49,0.00,0.00,0.95,0.00,2
-0.05,0.06,-1.25,2.69,-0.06,-0.49,0.00,0.00,1.03,0.00,2
-0.04,0.06,-1.25,2.62,0.37,-0.18,0.00,0.00,1.00,0.00,2
-0.05,0.06,-1.25,2.81,-0.24,-0.24,0.00,0.00,0.97,0.00,2
-0.04,0.05,-1.25,2.93,-0.31,-0.24,0.00,0.00,1.00,0.00,2
-0.05,0.05,-1.24,2.75,-0.24,-0.31,0.00,0.00,0.99,0.00,2
-0.04,0.06,-1.25,2.75,-0.43,-0.12,0.00,0.00,0.00,0.00,2
-0.04,0.06,-1.24,2.81,0.00,-0.37,0.00,0.00,0.00,0.00,2
-0.04,0.05,-1.25,3.11,0.06,-0.31,0.00,0.00,0.00,0.00,2
-0.04,0.06,-1.25,3.48,0.00,-0.61,0.00,0.00,0.00,0.00,2
-0.04,0.06,-1.25,2.20,1.04,-0.43,0.00,0.00,0.00,0.00,2
-0.04,0.05,-1.24,2.75,0.06,-0.31,0.00,0.00,0.00,0.00,2
-0.08,0.04,-1.27,20.26,-11.41,-2.32,0.00,0.00,0.00,0.00,2
-0.07,0.02,-1.24,-3.23,-0.98,-5.31,0.00,0.00,0.00,0.00,2
0.02,0.01,-1.16,3.30,4.94,-19.59,0.00,0.00,0.00,0.00,2
-0.06,0.08,-1.27,-0.92,-0.24,27.95,0.00,0.00,0.00,0.00,2
-0.05,0.07,-1.24,2.69,-0.85,-0.49,0.00,0.00,0.00,0.00,2
0.02,0.12,-1.24,2.69,1.16,-12.39,0.00,0.00,0.00,0.00,2
-0.05,0.08,-1.25,2.75,-0.61,-0.31,0.00,0.00,0.00,0.00,2
0.01,0.04,-1.19,3.97,2.14,-0.37,0.00,0.00,0.00,0.00,2
-0.05,0.05,-1.25,2.87,0.00,-0.18,0.00,0.00,0.00,0.00,2
-0.05,0.05,-1.24,2.81,0.49,-0.37,0.00,0.00,0.00,0.00,2
-0.05,0.06,-1.25,2.87,0.00,-0.49,0.00,0.00,0.00,0.00,2
-0.04,0.05,-1.25,3.17,-0.55,-0.49,0.00,0.00,0.00,0.00,2
-0.04,0.06,-1.24,2.99,-0.24,-0.43,0.00,0.00,0.00,0.00,2
-0.04,0.06,-1.24,2.69,0.49,-0.37,0.00,0.00,0.00,0.00,2
-0.05,0.05,-1.25,2.87,0.12,-0.31,0.00,0.00,0.00,0.00,2
-0.04,0.06,-1.24,2.62,0.49,-0.37,0.00,0.00,0.00,0.00,2
-0.04,0.05,-1.24,3.11,0.06,-0.55,0.00,0.00,0.00,0.00,2
-0.04,0.05,-1.25,2.93,0.37,6.10,0.00,0.00,0.00,0.00,2
-0.02,-0.01,-1.19,23.44,4.76,20.75,0.00,0.00,0.00,0.00,2
-0.01,0.04,-1.21,-1.89,-3.48,-3.23,0.00,0.00,0.00,0.00,2
0.01,0.05,-1.19,2.87,0.98,-0.24,0.00,0.00,0.00,0.00,2
-0.01,-0.04,-1.26,2.93,9.95,-16.72,0.00,0.00,0.00,0.00,2
-0.04,0.12,-1.23,48.71,9.16,-6.71,0.00,0.00,0.00,0.00,2
-0.08,0.03,-1.28,-8.12,1.22,29.24,0.00,0.00,0.00,0.00,2
-0.01,-0.20,-1.14,-29.17,24.17,68.60,0.00,0.00,0.00,0.00,2
-0.05,0.00,-1.25,69.27,-54.75,2.08,0.00,0.00,0.00,0.00,2
-0.05,0.03,-1.24,11.66,-2.01,-19.96,0.00,0.00,0.00,0.00,2
-0.06,0.05,-1.25,2.20,-2.69,-7.20,0.00,0.00,0.00,0.00,2
-0.04,0.07,-1.25,0.61,2.01,-2.56,0.00,0.00,0.00,0.00,2
-0.05,0.00,-1.23,3.78,-2.20,-0.37,0.00,0.00,0.00,0.00,2
-0.08,-0.04,-1.23,9.89,-2.20,-0.24,0.00,0.00,0.00,0.00,2
-0.04,0.05,-1.25,3.11,-0.49,-0.37,0.00,0.00,0.00,0.00,2
-0.04,0.05,-1.25,2.75,0.18,-0.31,0.00,0.00,0.00,0.00,2
-0.04,0.06,-1.24,2.50,0.37,-0.49,0.00,0.00,0.00,0.00,2
-0.05,0.05,-1.24,2.62,-0.12,-0.24,0.00,0.00,0.00,0.00,2
-0.04,0.06,-1.24,2.93,-0.06,-0.31,0.00,0.00,0.00,0.00,2
-0.04,0.05,-1.24,2.93,-0.06,-0.37,0.00,0.00,0.00,0.00,2
-0.05,0.05,-1.24,2.93,0.00,-0.55,0.00,0.00,0.00,0.00,2
-0.04,0.05,-1.25,2.62,0.06,-0.67,0.00,0.00,0.00,0.00,2
-0.03,0.05,-1.23,2.99,0.06,-0.61,0.00,0.00,0.00,0.00,2
0.04,0.38,-1.54,-10.68,-90.52,6.16,0.00,0.00,0.00,0.00,2
-0.04,0.05,-1.25,2.93,0.12,-0.37,0.00,0.00,0.00,0.00,2
-0.04,0.05,-1.25,2.87,-0.12,-0.18,0.00,0.00,0.00,0.00,2
-0.04,0.05,-1.25,2.87,0.12,-0.31,0.00,0.00,0.00,0.00,2
-0.04,0.05,-1.24,3.05,0.06,-0.24,0.00,0.00,0.00,0.00,2
-0.04,0.06,-1.25,2.44,0.79,-0.61,0.00,0.00,0.00,0.00,2
-0.04,0.06,-1.25,2.99,-0.18,-0.37,0.00,0.00,0.00,0.00,2
-0.04,0.05,-1.25,2.93,0.06,-0.24,0.00,0.00,0.00,0.00,2
-0.06,0.05,-1.25,11.17,-14.89,-1.53,0.00,0.00,0.00,0.00,2
-0.04,0.05,-1.25,2.81,0.00,-0.37,0.00,0.00,0.00,0.00,2
-0.06,0.05,-1.24,6.35,-6.29,-0.55,0.00,0.00,0.00,0.00,2
-0.04,0.06,-1.25,2.69,0.24,-0.43,0.00,0.00,0.00,0.00,2
-0.03,0.09,-1.27,-0.67,5.19,18.43,0.00,0.00,0.00,0.00,2
-0.05,0.05,-1.25,3.17,-0.49,-0.31,0.00,0.00,0.00,0.00,2
-0.04,0.06,-1.26,2.62,0.61,-0.12,0.00,0.00,0.00,0.00,2
-0.05,0.05,-1.24,2.87,-0.31,-0.24,0.00,0.00,0.00,0.00,2
-0.04,0.06,-1.26,2.56,0.85,-10.99,0.00,0.00,0.00,0.00,2
-0.03,0.06,-1.25,1.95,-0.31,-0.31,0.00,0.00,0.00,0.00,2
-0.04,0.06,-1.26,2.20,-0.31,-0.79,0.00,0.00,0.00,0.00,2
-0.06,0.06,-1.25,3.85,0.18,-0.55,0.00,0.00,0.00,0.00,2
-0.06,0.05,-1.25,3.54,-1.40,0.12,0.00,0.00,0.00,0.00,2
-0.04,0.05,-1.25,2.87,0.00,-0.37,0.00,0.00,0.00,0.00,2
-0.04,0.06,-1.24,3.05,-0.18,-0.12,0.00,0.00,0.00,0.00,2
-0.05,0.04,-1.24,3.23,-1.28,-0.37,0.00,0.00,0.00,0.00,2
-0.05,0.05,-1.25,2.87,0.12,-0.49,0.00,0.00,0.00,0.00,2
-0.04,0.06,-1.24,2.93,0.31,-0.31,0.00,0.00,1.89,0.00,2
-0.04,0.05,-1.25,2.87,0.06,-0.43,0.00,0.00,1.71,0.00,2
-0.04,0.06,-1.24,2.50,0.06,-0.12,0.00,0.00,1.63,0.00,2
-0.04,0.05,-1.24,3.11,0.18,-0.37,0.00,0.00,1.66,0.00,2
-0.04,0.06,-1.25,2.62,0.31,-0.73,0.00,0.00,1.14,0.00,2
-0.04,0.05,-1.25,2.69,-0.06,-0.61,0.00,0.00,0.66,0.00,2
-0.04,0.05,-1.25,2.75,0.12,-0.49,0.00,0.00,0.00,0.00,2
-0.05,0.06,-1.25,2.99,0.06,-0.49,0.00,0.00,0.68,0.00,2
-0.05,0.05,-1.24,1.34,2.87,-0.12,0.00,0.00,0.00,0.00,2
-0.05,0.05,-1.24,2.62,0.37,-0.31,0.00,0.00,0.00,0.00,2
-0.04,0.05,-1.25,2.81,0.00,-0.31,0.00,0.00,0.00,0.00,2
-0.04,0.05,-1.24,-0.31,4.76,-0.24,0.00,0.00,0.00,0.00,2
-0.05,0.05,-1.24,2.62,0.55,-0.55,0.00,0.00,0.00,0.00,2
-0.04,0.05,-1.24,2.69,0.43,-0.24,0.00,0.00,0.00,0.00,2
-0.04,0.05,-1.24,1.34,2.69,-0.18,0.00,0.00,0.00,0.00,2
-0.04,0.05,-1.24,3.05,-1.22,-0.49,0.00,0.00,0.00,0.00,2
-0.03,0.06,-1.25,2.81,-0.06,-0.31,0.00,0.00,0.00,0.00,2
-0.04,0.05,-1.25,2.93,-0.12,-0.43,0.00,0.00,0.00,0.00,2
-0.04,0.05,-1.24,3.11,0.06,-0.43,0.00,0.00,0.45,0.00,2
-0.04,0.05,-1.24,2.81,-0.18,-0.18,0.00,0.00,0.15,0.00,2
-0.04,0.05,-1.24,2.62,0.55,-0.55,0.00,0.00,0.00,0.00,2
-0.04,0.05,-1.24,2.87,0.06,-0.37,0.00,0.00,0.00,0.00,2
-0.01,0.06,-1.21,1.77,0.61,-0.18,0.00,0.00,0.00,0.00,2
-0.04,0.05,-1.25,2.69,0.31,-0.49,0.00,0.00,0.00,0.00,2
-0.04,0.06,-1.25,2.69,0.24,-0.37,0.00,0.00,0.00,0.00,2
-0.04,0.05,-1.25,2.75,0.06,-0.06,0.00,0.00,0.00,0.00,2
-0.04,0.06,-1.25,2.44,0.98,-0.24,0.00,0.00,0.00,0.00,2
-0.06,0.04,-1.24,9.83,-12.88,-0.55,0.00,0.00,0.00,0.00,2
-0.02,0.06,-1.25,2.69,0.55,2.14,0.00,0.00,0.00,0.00,2
-0.04,0.05,-1.24,2.69,0.06,-0.43,0.00,0.00,0.00,0.00,2
-0.04,0.05,-1.25,2.93,-0.12,-0.31,0.00,0.00,0.00,0.00,2
-0.04,0.06,-1.25,2.75,0.12,-0.37,0.00,0.00,0.00,0.00,2
-0.04,0.05,-1.25,2.93,-0.43,-0.37,0.00,0.00,0.00,0.00,2
-0.04,0.06,-1.24,3.30,0.00,-0.43,0.00,0.00,0.00,0.00,2
-0.05,0.05,-1.24,2.87,-0.06,-0.31,0.00,0.00,0.00,0.00,2
-0.04,0.05,-1.24,2.99,0.12,-0.37,0.00,0.00,0.00,0.00,2
-0.04,0.05,-1.24,2.56,0.49,-0.37,0.00,0.00,0.00,0.00,2
-0.04,0.05,-1.24,3.23,-0.31,-0.49,0.00,0.00,0.00,0.00,2
-0.04,0.06,-1.25,2.75,0.43,-0.18,0.00,0.00,0.00,0.00,2
-0.04,0.06,-1.25,2.69,0.12,-0.31,0.00,0.00,0.00,0.00,2
-0.03,0.06,-1.23,2.32,0.92,-0.37,0.00,0.00,0.00,0.00,2
-0.04,0.06,-1.25,2.69,0.55,-0.55,0.00,0.00,0.00,0.00,2
-0.04,0.06,-1.25,2.62,-0.06,-0.37,0.00,0.00,0.00,0.00,2
-0.05,0.06,-1.24,2.81,-0.18,-0.37,0.00,0.00,0.00,0.00,2
-0.05,0.06,-1.24,2.93,-0.24,-0.31,0.00,0.00,0.00,0.00,2
-0.05,0.05,-1.25,2.93,-0.06,-0.43,0.00,0.00,0.00,0.00,2
-0.04,0.07,-1.25,2.75,0.49,-0.37,0.00,0.00,0.00,0.00,2
-0.06,0.05,-1.24,2.99,-0.18,-4.88,0.00,0.00,0.00,0.00,2
-0.04,0.06,-1.25,2.81,0.18,-0.55,0.00,0.00,0.00,0.00,2
-0.04,0.06,-1.24,2.99,-0.06,-0.37,0.00,0.00,0.00,0.00,2
-0.04,0.05,-1.24,2.87,0.06,-0.12,0.00,0.00,0.00,0.00,2
-0.04,0.05,-1.25,2.81,0.00,-0.37,0.00,0.00,0.00,0.00,2
-0.07,0.03,-1.26,-1.53,-0.55,-15.50,0.00,0.00,0.00,0.00,2
-0.04,0.05,-1.25,2.81,0.49,-0.37,0.00,0.00,0.00,0.00,2
-0.04,0.05,-1.25,3.17,0.37,-0.31,0.00,0.00,0.00,0.00,2
-0.04,0.05,-1.24,2.81,0.18,-0.18,0.00,0.00,0.00,0.00,2
-0.04,0.05,-1.25,2.75,0.31,-0.43,0.00,0.00,0.00,0.00,2
-0.04,0.05,-1.25,2.99,-0.24,-0.43,0.00,0.00,0.00,0.00,2
-0.04,0.05,-1.24,3.48,0.31,-0.49,0.00,0.00,0.00,0.00,2
-0.05,0.06,-1.26,1.77,-0.67,-0.18,0.00,0.00,0.00,0.00,2
-0.03,0.06,-1.25,2.81,0.06,-0.55,0.00,0.00,0.00,0.00,2
-0.03,0.06,-1.25,3.05,-0.31,-0.31,0.00,0.00,0.00,0.00,2
-0.04,0.06,-1.25,2.87,0.06,-0.55,0.00,0.00,0.00,0.00,2
-0.04,0.05,-1.24,2.75,-0.24,-0.43,0.00,0.00,0.00,0.00,2
-0.04,0.05,-1.25,3.23,0.06,-0.31,0.00,0.00,0.00,0.00,2
-0.03,0.06,-1.24,2.62,0.92,-0.18,0.00,0.00,0.00,0.00,2
-0.04,0.05,-1.24,2.99,0.12,-0.31,0.00,0.00,0.00,0.00,2
-0.04,0.05,-1.25,2.99,0.37,-0.37,0.00,0.00,0.00,0.00,2
-0.04,0.05,-1.25,3.05,-0.18,-0.37,0.00,0.00,0.00,0.00,2
-0.04,0.05,-1.25,2.38,0.12,-0.67,0.00,0.00,0.00,0.00,2
-0.04,0.05,-1.24,2.56,-0.06,-0.24,0.00,0.00,0.00,0.00,2
-0.03,0.06,-1.25,2.75,-0.24,-0.43,0.00,0.00,0.00,0.00,2
-0.04,0.05,-1.25,2.99,0.06,-0.37,0.00,0.00,0.00,0.00,2
-0.03,0.02,-1.19,8.97,-0.73,3.54,0.00,0.00,0.00,0.00,2
-0.04,0.06,-1.24,3.17,-0.06,-0.43,0.00,0.00,0.00,0.00,2
-0.05,0.06,-1.25,2.75,-0.06,-0.43,0.00,0.00,0.00,0.00,2
-0.05,0.04,-1.24,3.30,-0.67,18.80,0.00,0.00,0.00,0.00,2
-0.04,0.06,-1.24,2.69,0.00,-0.49,0.00,0.00,0.00,0.00,2
-0.04,0.06,-1.25,3.17,0.00,-0.37,0.00,0.00,0.00,0.00,2
-0.05,0.06,-1.25,2.81,0.00,-0.55,0.00,0.00,0.00,0.00,2
-0.04,0.06,-1.25,2.69,0.18,-0.55,0.00,0.00,0.00,0.00,2
-0.04,0.05,-1.25,2.81,0.12,-0.31,0.00,0.00,0.00,0.00,2
-0.05,0.05,-1.24,2.50,0.43,-0.37,0.00,0.00,0.00,0.00,2
-0.04,0.06,-1.24,2.93,-0.06,-0.43,0.00,0.00,0.00,0.00,2
-0.04,0.06,-1.24,2.99,0.06,-0.49,0.00,0.00,0.00,0.00,2
-0.05,0.06,-1.24,2.87,0.12,-0.43,0.00,0.00,0.00,0.00,2
-0.05,0.06,-1.25,2.75,-0.06,-0.43,0.00,0.00,0.00,0.00,2
-0.04,0.05,-1.25,3.11,-0.24,-0.31,0.00,0.00,0.00,0.00,2
-0.05,0.05,-1.24,2.93,0.12,-0.49,0.00,0.00,0.00,0.00,2
-0.04,0.06,-1.25,2.99,0.06,-0.49,0.00,0.00,0.00,0.00,2
-0.04,0.06,-1.24,3.11,0.06,-0.43,0.00,0.00,0.00,0.00,2
-0.04,0.06,-1.25,2.87,-0.06,-0.37,0.00,0.00,0.00,0.00,2
-0.05,0.06,-1.25,2.93,-0.24,-0.61,0.00,0.00,0.00,0.00,2
-0.04,0.06,-1.25,2.75,-0.12,-0.43,0.00,0.00,0.00,0.00,2
-0.04,0.05,-1.25,3.05,0.12,-0.31,0.00,0.00,0.00,0.00,2
-0.04,0.06,-1.24,2.62,0.06,-0.31,0.00,0.00,0.00,0.00,2
-0.01,0.09,-1.26,2.87,-0.12,-5.31,0.00,0.00,0.00,0.00,2
-0.07,-0.07,-1.43,17.94,-1.40,-9.64,0.00,0.00,0.00,0.00,2
-0.03,0.10,-1.23,0.31,-1.59,8.79,0.00,0.00,0.00,0.00,2
-0.05,0.05,-1.25,3.11,0.92,0.00,0.00,0.00,0.00,0.00,2
-0.10,-0.00,-1.27,26.25,2.01,-62.07,0.00,0.00,0.00,0.00,2
-0.03,0.03,-1.25,-7.69,-0.79,-18.43,0.00,0.00,0.00,0.00,2
-0.07,0.01,-1.24,1.10,-3.11,6.41,0.00,0.00,0.00,0.00,2
0.00,0.04,-1.25,6.71,2.44,3.30,0.00,0.00,0.00,0.00,2
-0.17,0.03,-1.30,6.10,-16.85,-10.25,0.00,0.00,0.00,0.00,2
-0.08,-0.04,-1.22,16.60,3.78,2.81,0.00,0.00,0.00,0.00,2
-0.09,-0.10,-1.18,-42.54,-48.46,17.58,0.00,0.00,0.00,0.00,2
-0.08,-0.08,-1.28,2.62,-2.20,0.00,0.00,0.00,0.00,0.00,2
0.01,-0.12,-1.23,13.67,6.59,-1.16,0.00,0.00,0.00,0.00,2
-0.03,-0.06,-1.31,0.43,-1.77,0.00,0.00,0.00,0.00,0.00,2
-0.06,0.04,-1.26,6.53,3.17,35.46,0.00,0.00,0.00,0.00,2
-0.02,-0.03,-1.21,60.24,59.88,-36.32,0.00,0.00,0.00,0.00,2
0.08,0.03,-1.28,1.77,5.31,4.64,0.00,0.00,0.00,0.00,2
-0.08,-0.03,-1.23,3.23,0.49,-0.49,0.00,0.00,0.00,0.00,2
-0.07,-0.02,-1.25,8.30,-2.32,-2.69,0.00,0.00,0.00,0.00,2
-0.08,-0.03,-1.25,-1.83,2.75,14.34,0.00,0.00,0.00,0.00,2
-0.07,-0.03,-1.25,2.87,0.06,-0.12,0.00,0.00,0.00,0.00,2
-0.08,-0.03,-1.24,2.87,0.37,-0.24,0.00,0.00,0.00,0.00,2
-0.08,-0.03,-1.25,2.69,0.06,-0.31,0.00,0.00,0.00,0.00,2
-0.08,-0.03,-1.24,2.93,0.37,-0.49,0.00,0.00,0.00,0.00,2
-0.08,-0.03,-1.25,1.40,-1.46,-0.43,0.00,0.00,0.00,0.00,2
-0.08,-0.05,-1.22,13.73,-4.88,6.90,0.00,0.00,0.00,0.00,2
-0.08,-0.03,-1.24,2.26,-0.31,-0.37,0.00,0.00,0.00,0.00,2
-0.07,-0.03,-1.24,2.62,-0.18,-0.31,0.00,0.00,0.00,0.00,2
-0.08,-0.03,-1.25,2.93,0.06,-0.31,0.00,0.00,0.00,0.00,2
-0.07,-0.03,-1.24,3.11,0.06,-0.43,0.00,0.00,0.00,0.00,2
-0.07,-0.03,-1.25,2.56,0.06,-0.55,0.00,0.00,0.00,0.00,2
-0.07,-0.03,-1.24,2.75,0.12,-0.49,0.00,0.00,0.00,0.00,2
-0.04,0.04,-1.25,3.17,0.06,-0.06,0.00,0.00,0.00,0.00,2
-0.03,-0.06,-1.24,-1.77,-3.42,-1.89,0.00,0.00,0.00,0.00,2
-0.03,-0.05,-1.24,1.53,-1.22,-0.67,0.00,0.00,0.00,0.00,2
-0.02,-0.08,-1.25,2.01,-0.98,-0.31,0.00,0.00,0.00,0.00,2
-0.05,-0.07,-1.25,-8.12,-11.60,2.75,0.00,0.00,0.00,0.00,2
-0.02,-0.07,-1.24,1.46,-1.34,7.87,0.00,0.00,0.00,0.00,2
-0.02,-0.04,-1.23,1.95,0.49,7.93,0.00,0.00,0.00,0.00,2
-0.02,-0.08,-1.23,4.27,0.73,-0.49,0.00,0.00,0.00,0.00,2
0.00,-0.06,-1.24,-1.59,0.12,-0.49,0.00,0.00,0.00,0.00,2
-0.23,-0.08,-1.46,-0.55,-12.82,-3.85,0.00,0.00,0.00,0.00,2
-0.05,-0.03,-1.27,33.33,0.49,6.41,0.00,0.00,0.00,0.00,2
-0.05,-0.04,-1.20,-82.15,39.06,-19.17,0.00,0.00,0.00,0.00,2
-0.06,0.01,-1.25,4.70,0.43,-11.23,0.00,0.00,0.00,0.00,2
-0.25,0.10,-1.46,-18.92,-12.39,13.12,0.00,0.00,0.00,0.00,2
-0.05,-0.09,-1.24,3.97,-0.18,-0.24,0.00,0.00,0.00,0.00,2
-0.08,-0.04,-1.26,2.08,0.43,0.55,0.00,0.00,0.00,0.00,2
-0.14,0.07,-1.32,-10.99,-6.71,-1.10,0.00,0.00,0.00,0.00,2
-0.05,0.05,-1.25,3.36,0.00,-0.43,0.00,0.00,0.00,0.00,2
-0.04,0.06,-1.25,1.77,0.24,-0.31,0.00,0.00,0.00,0.00,2
-0.05,0.05,-1.25,2.87,0.12,-0.49,0.00,0.00,0.00,0.00,2
-0.05,0.05,-1.24,2.81,0.18,-0.61,0.00,0.00,0.00,0.00,2
-0.05,0.05,-1.25,2.62,-0.06,-0.43,0.00,0.00,0.00,0.00,2
-0.04,0.04,-1.24,2.81,0.85,-0.55,0.00,0.00,0.00,0.00,2
-0.05,0.04,-1.25,2.87,0.18,-0.31,0.00,0.00,0.00,0.00,2
-0.05,0.05,-1.25,2.93,-0.12,-0.18,0.00,0.00,0.00,0.00,2
-0.05,0.05,-1.25,2.93,0.06,-0.31,0.00,0.00,0.00,0.00,2
-0.05,0.05,-1.24,2.87,0.49,-0.43,0.00,0.00,0.00,0.00,2
-0.04,0.05,-1.25,2.08,0.18,-0.55,0.00,0.00,0.00,0.00,2
-0.05,0.04,-1.25,2.56,-0.43,-0.24,0.00,0.00,0.00,0.00,2
-0.05,0.04,-1.25,4.82,0.12,-2.87,0.00,0.00,0.00,0.00,2
-0.05,0.05,-1.25,1.71,-0.06,-0.24,0.00,0.00,0.00,0.00,2
-0.04,0.05,-1.25,5.49,0.61,-0.67,0.00,0.00,0.00,0.00,2
-0.05,0.06,-1.25,2.08,0.31,-0.24,0.00,0.00,0.00,0.00,2
-0.05,0.05,-1.24,4.46,-0.12,-0.31,0.00,0.00,0.00,0.00,2
-0.04,0.04,-1.23,2.99,-0.67,-0.31,0.00,0.00,0.00,0.00,2
-0.05,0.05,-1.24,2.81,0.43,-0.37,0.00,0.00,0.00,0.00,2
-0.05,0.04,-1.25,2.69,0.00,-0.18,0.00,0.00,0.00,0.00,2
-0.05,0.05,-1.25,2.50,0.12,-0.55,0.00,0.00,0.00,0.00,2
-0.04,0.05,-1.25,2.87,0.06,-0.73,0.00,0.00,0.00,0.00,2
-0.04,0.05,-1.25,2.38,0.00,-0.12,0.00,0.00,0.00,0.00,2
-0.05,0.05,-1.24,2.81,-0.12,-0.43,0.00,0.00,0.00,0.00,2
-0.04,0.05,-1.25,2.62,0.55,-0.12,0.00,0.00,0.00,0.00,2
-0.05,0.05,-1.24,2.99,0.06,-0.55,0.00,0.00,0.00,0.00,2
-0.05,0.05,-1.25,2.62,0.00,-0.37,0.00,0.00,0.00,0.00,2
-0.04,0.05,-1.25,2.75,-0.12,-0.24,0.00,0.00,0.00,0.00,2
-0.04,0.05,-1.24,2.93,0.00,-0.24,0.00,0.00,0.00,0.00,2
-0.05,0.05,-1.25,3.11,-0.12,-0.55,0.00,0.00,0.00,0.00,2
-0.05,0.06,-1.25,3.30,0.06,-0.31,0.00,0.00,0.00,0.00,2
-0.05,0.05,-1.24,2.75,0.18,-0.24,0.00,0.00,0.00,0.00,2
-0.05,0.05,-1.25,2.99,0.00,-0.37,0.00,0.00,0.00,0.00,2
-0.05,0.05,-1.25,2.87,0.06,-0.43,0.00,0.00,0.00,0.00,2
-0.05,0.05,-1.25,3.30,0.00,-0.37,0.00,0.00,0.00,0.00,2
-0.04,0.05,-1.25,2.50,0.06,-0.18,0.00,0.00,0.00,0.00,2
-0.05,0.05,-1.24,2.99,0.12,-0.55,0.00,0.00,0.00,0.00,2
-0.05,0.05,-1.25,2.93,0.12,-0.37,0.00,0.00,0.00,0.00,2
-0.07,0.05,-1.26,4.33,-0.37,-0.37,0.00,0.00,0.00,0.00,2
-0.05,0.05,-1.25,6.71,-0.31,-0.31,0.00,0.00,0.00,0.00,2
-0.04,0.06,-1.25,3.11,0.12,-0.37,0.00,0.00,0.00,0.00,2
-0.04,0.06,-1.25,2.50,0.31,-0.61,0.00,0.00,0.00,0.00,2
-0.05,0.06,-1.25,3.85,-0.43,-0.43,0.00,0.00,0.00,0.00,2
-0.05,0.05,-1.24,3.05,0.06,-0.37,0.00,0.00,0.00,0.00,2
-0.04,0.04,-1.25,0.49,0.06,-0.43,0.00,0.00,0.00,0.00,2
-0.06,0.01,-1.23,-2.69,0.61,-11.60,0.00,0.00,0.00,0.00,2
-0.05,0.04,-1.23,0.18,-0.92,1.10,0.00,0.00,0.00,0.00,2
-0.05,0.06,-1.25,3.11,0.00,-0.43,0.00,0.00,0.00,0.00,2
-0.07,0.05,-1.26,21.55,-2.62,-36.50,0.00,0.00,0.00,0.00,2
-0.06,0.04,-1.23,6.84,-5.25,-0.43,0.00,0.00,0.00,0.00,2
-0.04,0.06,-1.25,2.87,0.37,-0.43,0.00,0.00,0.00,0.00,2
-0.04,0.06,-1.25,2.75,0.24,-0.61,0.00,0.00,0.00,0.00,2
-0.04,0.06,-1.25,2.75,0.12,-0.37,0.00,0.00,0.00,0.00,2
-0.05,0.06,-1.25,2.81,-0.18,-0.18,0.00,0.00,0.00,0.00,2
-0.05,0.07,-1.26,2.38,0.31,-0.31,0.00,0.00,0.00,0.00,2
-0.04,0.06,-1.25,3.05,-0.18,-0.24,0.00,0.00,0.00,0.00,2
-0.05,0.06,-1.25,3.05,0.18,-0.37,0.00,0.00,0.00,0.00,2
-0.05,0.06,-1.24,0.49,-0.06,1.40,0.00,0.00,0.00,0.00,2
-0.04,0.05,-1.25,2.99,0.00,-0.49,0.00,0.00,0.00,0.00,2
-0.04,0.06,-1.23,2.75,0.37,-0.43,0.00,0.00,0.00,0.00,2
-0.04,0.06,-1.25,2.99,0.06,-0.43,0.00,0.00,0.00,0.00,2
-0.05,0.06,-1.24,2.87,-0.06,-0.31,0.00,0.00,0.00,0.00,2
-0.05,0.04,-1.25,-13.18,-1.28,13.43,0.00,0.00,0.00,0.00,2
-0.05,0.05,-1.24,4.09,0.18,-0.61,0.00,0.00,0.00,0.00,2
-0.04,0.06,-1.25,2.87,0.00,-0.24,0.00,0.00,0.00,0.00,2
-0.05,0.06,-1.24,2.99,-0.06,-0.43,0.00,0.00,0.00,0.00,2
-0.05,0.06,-1.25,2.62,0.00,-0.49,0.00,0.00,0.00,0.00,2
-0.04,0.04,-1.23,4.58,0.79,-0.12,0.00,0.00,0.00,0.00,2
-0.06,0.07,-1.24,5.19,-4.15,-8.12,0.00,0.00,0.00,0.00,2
-0.02,0.16,-1.23,3.60,-5.98,7.51,0.00,0.00,0.00,0.00,2
-0.08,0.06,-1.24,4.94,-3.05,-1.40,0.00,0.00,0.00,0.00,2
-0.10,0.04,-1.25,1.65,1.65,-0.24,0.00,0.00,0.00,0.00,2
-0.10,0.05,-1.25,-2.20,6.35,0.43,0.00,0.00,0.00,0.00,2
-0.14,0.01,-1.24,8.67,-8.06,-1.22,0.00,0.00,0.00,0.00,2
-0.10,0.06,-1.23,16.24,-20.14,-2.08,0.00,0.00,0.00,0.00,2
-0.09,0.03,-1.24,-7.20,25.82,0.92,0.00,0.00,0.00,0.00,2
-0.12,-0.00,-1.22,2.44,-1.22,2.26,0.00,0.00,0.00,0.00,2
-0.12,-0.00,-1.22,2.44,-1.22,2.26,0.00,0.00,0.00,0.00,2
-1.20,0.17,-9.92,17.58,6.10,1.22,0.00,0.00,0.00,0.00,2
-1.21,0.15,-9.94,24.60,-3.48,-1.95,0.00,0.00,0.00,0.00,2
-1.27,0.12,-9.86,18.80,-10.07,1.04,0.00,0.00,0.00,0.00,2
-1.22,0.15,-9.96,28.26,-11.90,1.10,0.00,0.00,0.00,0.00,2
-1.22,0.11,-9.93,31.07,-24.84,15.14,0.00,0.00,0.00,0.00,2
-1.10,0.90,-10.10,156.68,-243.10,-25.82,0.00,0.00,0.00,0.00,2
-0.34,0.62,-9.99,21.91,-0.98,-1.04,0.00,0.00,0.00,0.00,2
-0.46,0.65,-10.04,21.55,-0.85,-0.61,0.00,0.00,0.00,0.00,2
-0.33,0.57,-9.94,21.48,-3.97,1.28,0.00,0.00,0.00,0.00,2
-0.33,0.61,-9.95,20.39,3.23,-7.02,0.00,0.00,0.00,0.00,2
-0.35,0.29,-10.00,-31.49,-0.55,-2.56,0.00,0.00,0.00,0.00,2
-0.37,0.39,-10.04,-17.88,-2.75,-14.22,0.00,0.00,0.00,0.00,2
-0.21,0.07,-9.80,24.60,7.39,-2.14,0.00,0.00,0.00,0.00,2
-0.32,0.38,-10.01,30.64,1.71,-0.31,0.00,0.00,0.00,0.00,2
-0.30,0.46,-10.01,22.83,-1.89,0.67,0.00,0.00,0.00,0.00,2
-0.30,0.46,-9.93,25.27,-2.75,0.37,0.00,0.00,0.00,0.00,2
-0.33,0.41,-9.99,22.46,0.55,-1.10,0.00,0.00,0.00,0.00,2
-0.31,0.40,-10.03,21.55,0.85,0.49,0.00,0.00,0.00,0.00,2
-0.33,0.37,-9.99,22.89,-1.59,-0.67,0.00,0.00,0.00,0.00,2
-0.35,0.40,-10.02,23.44,-2.81,-0.55,0.00,0.00,0.00,0.00,2
-0.30,0.41,-9.95,24.23,0.06,-0.73,0.00,0.00,0.00,0.00,2
-0.30,0.42,-9.95,19.17,4.94,0.06,0.00,0.00,0.00,0.00,2
-0.28,0.38,-10.02,30.33,-5.19,0.24,0.00,0.00,0.00,0.00,2
-0.30,0.41,-9.92,25.51,1.46,-1.83,0.00,0.00,0.00,0.00,2
-0.32,0.16,-9.72,105.22,5.25,-7.69,0.00,0.00,0.00,0.00,2
-0.33,0.39,-10.01,19.96,-0.98,-2.87,0.00,0.00,0.00,0.00,2
-0.40,0.23,-9.93,22.95,-0.06,-2.50,0.00,0.00,0.00,0.00,2
-0.31,0.39,-10.01,21.79,2.56,0.55,0.00,0.00,0.00,0.00,2
-0.30,0.40,-9.93,21.79,-2.20,-0.92,0.00,0.00,0.00,0.00,2
-0.22,0.44,-9.99,48.89,-41.44,-5.31,0.00,0.00,0.00,0.00,2
-0.34,0.39,-9.98,23.93,1.10,-0.85,0.00,0.00,0.00,0.00,2
-0.30,0.36,-9.85,88.13,5.25,-2.32,0.00,0.00,0.00,0.00,2
-0.31,0.31,-9.82,141.30,8.61,-2.69,0.00,0.00,0.00,0.00,2
-0.36,0.57,-10.00,7.87,2.50,0.06,0.00,0.00,0.00,0.00,2
1.12,1.58,-12.00,-1.28,-70.92,0.73,0.00,0.00,0.00,0.00,2
-0.31,0.54,-10.00,6.04,-1.34,-2.38,0.00,0.00,0.00,0.00,2
-0.33,0.44,-10.05,-65.19,-4.03,16.48,0.00,0.00,0.00,0.00,2
-0.31,0.46,-10.11,109.19,4.33,1.04,0.00,0.00,0.00,0.00,2
-0.35,0.40,-10.02,36.50,-1.46,2.20,0.00,0.00,0.00,0.00,2
-0.31,0.42,-9.98,21.42,0.12,-0.79,0.00,0.00,0.00,0.00,2
-0.30,0.40,-9.97,19.96,4.03,-0.37,0.00,0.00,0.00,0.00,2
-0.31,0.34,-9.89,24.29,-0.31,-0.43,0.00,0.00,0.00,0.00,2
-0.16,0.51,-10.02,29.11,-8.79,-2.99,0.00,0.00,0.00,0.00,2
-0.33,0.40,-9.95,37.17,-23.50,-2.20,0.00,0.00,0.00,0.00,2
-0.18,0.61,-9.96,21.79,2.62,32.10,0.00,0.00,0.00,0.00,2
-0.20,0.51,-10.02,22.40,-0.92,-2.75,0.00,0.00,0.00,0.00,2
-0.13,0.59,-9.93,15.50,8.85,6.04,0.00,0.00,0.00,0.00,2
1.50,2.02,-7.79,42.48,25.39,233.34,0.00,0.00,0.00,0.00,2
-0.41,0.53,-9.95,22.03,-9.77,8.67,0.00,0.00,0.00,0.00,2
-0.33,0.59,-9.93,22.71,0.37,-1.28,0.00,0.00,0.00,0.00,2
-0.19,0.63,-9.85,85.75,-1.46,-60.06,0.00,0.00,0.00,0.00,2
-0.38,0.60,-9.95,20.51,4.94,-2.50,0.20,0.00,0.00,0.00,2
-0.36,0.61,-9.98,21.12,0.06,0.67,0.65,0.00,0.00,0.00,2
-0.37,0.58,-9.93,23.50,1.16,0.06,0.70,0.00,0.00,0.00,2
-0.36,0.58,-9.94,21.79,0.24,-0.92,0.66,0.00,0.00,0.00,2
-0.33,0.69,-9.99,30.76,-58.90,238.65,0.00,0.00,0.00,0.00,2
-0.53,0.50,-9.99,24.05,-1.59,127.26,0.00,0.00,0.00,0.00,2
-0.39,0.59,-9.97,22.46,1.40,-1.46,0.00,0.00,0.00,0.00,2
-0.38,0.60,-9.99,23.93,-4.15,-0.18,0.00,0.00,0.00,0.00,2
-0.38,0.62,-9.99,23.68,-1.83,-1.16,0.00,0.00,0.00,0.00,2
-0.39,0.58,-9.98,22.71,-1.71,-0.31,0.00,0.00,0.00,0.00,2
-0.40,0.57,-9.89,23.99,0.73,0.06,0.00,0.00,0.00,0.00,2
-0.41,0.61,-9.97,21.97,0.61,-1.40,0.00,0.00,0.00,0.00,2
-0.43,0.63,-9.98,22.28,0.24,-0.43,0.00,0.00,0.00,0.00,2
-0.37,0.56,-10.01,22.58,-0.67,1.04,0.00,0.00,0.00,0.00,2
-0.41,0.60,-9.93,21.42,2.14,-1.40,0.00,0.00,0.00,0.00,2
-0.39,0.56,-9.96,21.55,-0.12,0.73,0.00,0.00,0.00,0.00,2
-0.39,0.61,-9.91,21.24,-0.67,0.67,0.00,0.00,0.00,0.00,2
-0.37,0.62,-9.96,19.29,3.72,-3.60,0.00,0.00,0.00,0.00,2
-0.42,0.59,-9.97,22.64,0.79,-1.65,0.00,0.00,0.00,0.00,2
-0.38,0.57,-9.97,21.67,4.33,-0.73,0.00,0.00,0.00,0.00,2
-0.42,0.58,-10.00,22.28,0.92,0.92,0.00,0.00,0.00,0.00,2
-0.38,0.59,-9.92,22.95,1.22,-2.56,0.00,0.00,0.00,0.00,2
-0.45,0.62,-10.02,21.67,-1.10,-2.56,0.00,0.00,0.00,0.00,2
-0.38,0.62,-9.92,21.24,2.50,-0.92,0.00,0.00,0.00,0.00,2
-0.39,0.60,-10.03,22.16,-2.32,-2.32,0.00,0.00,0.00,0.00,2
-0.40,0.59,-9.95,21.67,0.12,1.46,0.00,0.00,0.00,0.00,2
-0.38,0.58,-9.97,22.83,0.73,-0.92,0.00,0.00,0.00,0.00,2
-0.39,0.63,-9.96,22.28,0.18,-1.04,0.00,0.00,0.00,0.00,2
-0.13,0.68,-9.96,22.28,3.78,100.34,0.00,0.00,0.00,0.00,2
-0.41,0.60,-9.98,20.63,-0.85,0.18,0.00,0.00,0.00,0.00,2
-0.40,0.62,-9.99,21.91,0.43,0.49,0.00,0.00,0.00,0.00,2
-0.37,0.61,-9.95,21.85,0.43,-2.50,0.00,0.00,0.00,0.00,2
-0.43,0.57,-9.98,22.95,-0.79,0.18,0.00,0.00,0.00,0.00,2
-0.40,0.62,-9.96,20.02,3.23,-2.20,0.00,0.00,0.00,0.00,2
-0.43,0.57,-9.94,23.44,-0.92,-0.92,0.00,0.00,0.00,0.00,2
-0.39,0.60,-10.02,21.00,-0.43,-0.85,0.00,0.00,0.00,0.00,2
-0.38,0.60,-9.96,23.44,0.55,-0.06,0.00,0.00,0.00,0.00,2
-0.37,0.60,-9.98,21.42,-0.12,-0.18,0.00,0.00,0.00,0.00,2
-0.40,0.60,-9.95,22.89,-0.61,-2.20,0.00,0.00,0.00,0.00,2
-0.38,0.58,-9.97,22.83,-1.04,-0.61,0.00,0.00,0.00,0.00,2
-0.37,0.58,-10.00,23.68,0.85,-1.59,0.00,0.00,0.00,0.00,2
-0.42,0.59,-10.00,22.83,0.31,-0.37,0.00,0.00,0.00,0.00,2
-0.40,0.62,-9.99,20.57,-0.31,-0.92,0.00,0.00,0.00,0.00,2
-0.39,0.60,-9.96,23.32,0.37,-1.53,0.00,0.00,0.00,0.00,2
-0.56,0.64,-10.08,21.91,-3.05,0.92,0.00,0.00,0.00,0.00,2
-0.43,0.51,-9.89,22.46,2.62,63.96,0.00,0.00,0.00,0.00,2
-0.53,0.64,-10.05,43.70,-64.45,-3.85,0.00,0.00,0.00,0.00,2
-0.30,0.61,-10.17,13.92,-8.67,0.49,0.00,0.00,0.00,0.00,2
-0.33,0.70,-10.32,8.24,-28.08,21.91,0.00,0.00,0.00,0.00,2
-0.21,0.53,-9.92,25.63,7.39,-1.95,0.00,0.00,0.00,0.00,2
-0.46,0.50,-10.05,-121.34,21.36,-147.09,0.00,0.00,0.00,0.00,2
-0.33,0.47,-9.96,11.96,17.76,2.38,0.00,0.00,0.00,0.00,2
-0.44,0.44,-9.98,23.38,-1.71,-1.71,0.00,0.00,0.00,0.00,2
-0.41,0.46,-9.97,22.58,0.73,1.10,0.00,0.00,0.00,0.00,2
-0.44,0.48,-9.94,22.16,0.24,-2.08,0.00,0.00,0.00,0.00,2
-0.45,0.47,-9.98,22.77,-1.10,0.06,0.00,0.00,0.00,0.00,2
-0.42,0.48,-9.96,22.95,0.49,-1.10,0.00,0.00,0.00,0.00,2
-0.40,0.45,-9.96,21.42,0.92,-1.46,0.00,0.00,0.00,0.00,2
-0.43,0.46,-9.99,21.24,1.28,-2.50,0.00,0.00,0.00,0.00,2
-0.44,0.49,-9.98,21.12,-0.24,-0.55,0.00,0.00,0.00,0.00,2
-0.41,0.46,-9.96,21.67,3.60,-0.98,0.00,0.00,0.00,0.00,2
-0.39,0.45,-9.98,22.34,-0.24,-1.89,0.00,0.00,0.00,0.00,2
-0.47,0.42,-9.98,24.17,-1.04,0.00,0.00,0.00,0.00,0.00,2
-0.42,0.45,-9.93,21.79,1.16,-2.26,0.00,0.00,0.00,0.00,2
-0.38,0.45,-9.95,23.19,0.12,-0.79,0.00,0.00,0.00,0.00,2
-0.41,0.46,-9.95,22.64,-0.37,0.73,0.00,0.00,0.00,0.00,2
-0.43,0.43,-10.02,-23.86,46.33,0.06,0.00,0.00,0.00,0.00,2
-0.26,0.58,-9.90,19.17,2.56,10.50,0.00,0.00,0.00,0.00,2
-0.21,0.60,-9.96,23.68,0.12,-1.16,0.82,0.00,0.00,0.00,2
-0.51,0.32,-9.87,161.13,-4.03,-21.12,0.73,0.00,0.00,0.00,2
-0.64,0.33,-10.04,-4.88,45.84,-6.84,0.96,0.00,0.00,0.00,2
-0.33,0.55,-9.99,30.94,-14.53,0.73,0.44,0.00,0.00,0.00,2
-0.20,0.59,-9.88,20.39,-3.11,-0.67,0.63,0.00,0.00,0.00,2
-0.06,0.55,-9.67,-28.99,-131.41,-4.27,0.76,0.00,0.00,0.00,2
-0.47,0.45,-9.99,23.50,0.31,-1.40,0.79,0.00,0.00,0.00,2
-0.45,0.47,-10.01,19.65,2.08,-1.59,0.78,0.00,0.00,0.00,2
-0.43,0.48,-9.99,21.48,-0.24,-0.98,0.81,0.00,0.00,0.00,2
-0.44,0.44,-9.99,22.46,-2.87,-1.65,0.82,0.00,0.00,0.00,2
-0.43,0.46,-9.96,23.62,-0.06,-0.61,0.83,0.00,0.00,0.00,2
-0.44,0.44,-9.89,20.57,0.79,-1.34,0.82,0.00,0.00,0.00,2
-0.44,0.46,-9.95,23.62,0.18,-2.01,0.81,0.00,0.00,0.00,2
-0.45,0.50,-10.07,23.01,-1.04,-2.75,0.81,0.00,0.00,0.00,2
-0.44,0.50,-9.99,16.66,7.57,-0.79,0.80,0.00,0.00,0.00,2
-0.45,0.46,-9.96,21.48,3.23,1.16,0.79,0.00,0.00,0.00,2
-0.42,0.50,-9.90,23.44,0.37,-0.06,0.91,0.00,0.00,0.00,2
-0.43,0.52,-9.98,20.94,4.58,-1.10,0.87,0.00,0.00,0.00,2
-0.47,0.45,-9.95,21.79,0.67,-3.36,0.80,0.00,0.00,0.00,2
-0.45,0.55,-10.07,17.64,4.39,0.85,0.88,0.00,0.00,0.00,2
-0.49,0.47,-10.02,-0.61,2.44,-4.03,0.82,0.00,0.00,0.00,2
-0.47,0.45,-9.95,26.73,0.79,0.79,0.89,0.00,0.00,0.00,2
-0.45,0.45,-10.00,23.80,1.40,-2.56,0.82,0.00,0.00,0.00,2
-0.48,0.47,-9.95,23.19,-0.67,-0.49,0.83,0.00,0.00,0.00,2
-0.45,0.47,-9.93,22.58,1.83,-0.98,0.85,0.00,0.00,0.00,2
-0.47,0.41,-9.93,27.22,-2.56,0.18,0.83,0.00,0.00,0.00,2
-0.45,0.46,-9.97,21.67,-0.24,1.04,0.82,0.00,0.00,0.00,2
-0.43,0.44,-9.95,23.19,-0.24,0.06,0.73,0.00,0.00,0.00,2
-0.49,0.46,-10.00,22.28,-2.38,0.00,0.76,0.00,0.00,0.00,2
-0.44,0.47,-9.97,19.47,1.71,0.06,0.78,0.00,0.00,0.00,2
-0.45,0.46,-9.97,21.24,0.73,-0.67,0.75,0.00,0.00,0.00,2
-0.46,0.44,-9.96,22.16,0.73,0.24,0.79,0.00,0.00,0.00,2
-0.44,0.48,-10.00,20.14,0.31,-1.04,0.70,0.00,0.00,0.00,2
-0.44,0.48,-10.01,22.28,-1.04,-1.95,0.38,0.00,0.00,0.00,2
-0.48,0.46,-9.94,21.00,1.34,-1.71,0.72,0.00,0.00,0.00,2
-0.45,0.46,-9.97,22.28,0.37,0.06,0.79,0.00,0.00,0.00,2
-0.45,0.48,-9.99,21.97,-0.24,-1.46,0.93,0.00,0.00,0.00,2
-0.43,0.45,-9.96,21.42,0.73,-2.62,0.92,0.00,0.00,0.00,2
-0.46,0.50,-9.95,21.79,-0.85,-0.06,0.93,0.00,0.00,0.00,2
-0.53,0.35,-10.00,22.83,-0.55,25.94,1.02,0.00,0.00,0.00,2
-0.46,0.42,-9.94,11.78,0.55,-2.01,0.96,0.00,0.00,0.00,2
-0.45,0.45,-9.89,22.22,1.22,-1.77,0.90,0.00,0.00,0.00,2
-0.40,0.48,-10.07,36.74,-2.56,-0.79,0.89,0.00,0.00,0.00,2
-0.41,0.48,-9.96,19.23,1.04,-0.43,0.88,0.00,0.00,0.00,2
-0.39,0.40,-9.90,41.99,-1.65,16.91,0.88,0.00,0.00,0.00,2
-0.43,0.43,-9.98,21.18,4.94,0.24,0.89,0.00,0.00,0.00,2
-0.46,0.47,-10.01,-0.85,2.14,61.83,0.89,0.00,0.00,0.00,2
-1.37,0.88,-11.12,-135.38,25.02,135.19,0.91,0.00,0.00,0.00,2
-0.23,0.59,-9.94,22.16,-1.04,-2.14,0.92,0.00,0.00,0.00,2
-0.24,0.60,-9.96,21.85,-0.55,-1.77,0.96,0.00,0.00,0.00,2
-0.21,0.60,-9.97,23.99,2.87,-2.01,0.97,0.00,0.00,0.00,2
-0.23,0.60,-10.05,21.85,1.65,-2.08,1.01,0.00,0.00,0.00,2
-0.17,0.61,-9.99,21.73,-0.06,0.12,1.01,0.00,0.00,0.00,2
-0.22,0.62,-10.02,21.85,2.87,-1.53,0.93,0.00,0.00,0.00,2
-0.18,0.68,-9.86,20.32,-0.12,-1.83,0.00,0.00,0.00,0.00,2
-0.24,0.59,-9.94,23.80,0.92,-1.59,0.00,0.00,0.00,0.00,2
-0.46,0.51,-10.03,30.58,-1.04,-0.24,0.00,0.00,0.00,0.00,2
-0.47,0.46,-9.99,20.87,-0.31,-2.26,0.00,0.00,0.00,0.00,2
-0.46,0.46,-9.93,24.96,0.67,-2.14,0.00,0.00,0.00,0.00,2
-0.43,0.47,-9.97,24.48,1.83,-0.79,0.00,0.00,0.00,0.00,2
-0.23,0.62,-9.97,22.77,0.12,-1.34,0.00,0.00,0.00,0.00,2
-0.22,0.54,-9.95,14.77,-15.44,-0.31,0.00,0.00,0.00,0.00,2
-0.25,0.49,-10.06,23.19,-1.04,-63.11,0.00,0.00,0.00,0.00,2
-0.18,0.61,-9.88,19.78,1.34,-0.98,0.00,0.00,0.14,0.00,2
-0.22,0.60,-9.96,24.54,1.83,-0.79,0.00,0.00,0.18,0.00,2
-0.46,0.32,-9.70,-25.94,14.47,197.39,0.00,0.00,0.18,0.00,2
-0.46,0.43,-9.99,22.58,6.65,-0.73,0.00,0.00,0.20,0.00,2
-0.32,0.67,-10.04,63.17,-83.31,-21.85,0.00,0.00,0.14,0.00,2
-0.53,0.67,-9.82,18.43,-3.42,0.61,0.00,0.00,0.18,0.00,2
-0.37,0.28,-9.92,20.69,1.89,-42.72,0.00,0.00,0.23,0.00,2
-0.71,0.08,-10.03,23.56,-5.55,7.57,0.00,0.00,0.18,0.00,2
-0.35,0.69,-10.08,21.06,5.55,-8.54,0.00,0.00,0.18,0.00,2
-0.21,0.59,-10.04,23.93,-6.35,-0.37,0.00,0.00,0.18,0.00,2
-0.21,0.58,-9.95,21.48,1.46,-1.83,0.00,0.00,0.23,0.00,2
-0.23,0.61,-9.92,22.16,4.39,-1.28,0.00,0.00,0.23,0.00,2
-0.25,0.62,-10.03,22.77,-2.01,-1.22,0.00,0.00,0.24,0.00,2
0.21,1.01,-9.76,75.62,148.86,7.02,0.00,0.00,0.21,0.00,2
-0.24,0.59,-9.99,22.28,-0.49,0.00,0.00,0.00,0.21,0.00,2
-0.32,0.50,-9.89,153.63,-8.54,181.88,0.00,0.00,0.24,0.00,2
-0.42,0.47,-9.95,27.04,-0.18,-1.95,0.00,0.00,0.21,0.00,2
-0.46,0.54,-10.01,27.71,2.01,-2.14,0.00,0.00,0.21,0.00,2
-0.45,0.47,-9.92,26.18,-5.74,0.18,0.00,0.00,0.24,0.00,2
-0.46,0.49,-9.99,23.56,-0.67,0.31,0.00,0.00,0.24,0.00,2
-0.11,0.63,-9.93,29.42,-8.97,-142.58,0.00,0.00,0.29,0.00,2
-0.39,0.42,-9.94,23.13,-3.91,-0.67,0.00,0.00,0.40,0.00,2
-0.36,0.46,-9.86,26.18,-1.04,-0.85,0.00,0.00,0.43,0.00,2
-0.48,0.46,-10.01,21.24,0.18,-0.31,0.00,0.00,0.29,0.00,2
-0.41,0.48,-9.93,19.96,3.97,-0.18,0.00,0.00,0.26,0.00,2
-0.39,0.47,-9.92,21.42,6.23,0.49,0.00,0.00,0.00,0.00,2
-0.45,0.48,-9.96,23.50,-0.12,-2.38,0.00,0.00,0.19,0.00,2
-0.42,0.45,-9.96,23.01,0.12,-1.65,0.00,0.00,0.18,0.00,2
-0.43,0.48,-9.95,23.19,1.65,-1.28,0.00,0.00,0.23,0.00,2
-0.51,0.48,-10.06,14.10,14.10,1.16,0.00,0.00,0.30,0.00,2
-0.36,0.47,-9.96,19.90,4.39,-1.34,0.00,0.00,0.26,0.00,2
-0.45,0.48,-9.95,22.09,1.71,0.00,0.00,0.00,0.27,0.00,2
-0.46,0.45,-10.01,23.56,-0.49,-2.20,0.00,0.00,0.29,0.00,2
-0.44,0.43,-9.96,21.55,0.67,-0.31,0.00,0.00,0.27,0.00,2
-0.45,0.45,-9.96,24.11,2.56,-0.18,0.00,0.00,0.26,0.00,2
-0.46,0.44,-9.94,23.19,-0.06,-2.14,0.00,0.00,0.25,0.00,2
-0.47,0.46,-9.93,22.52,2.93,-1.83,0.00,0.00,0.24,0.00,2
-0.51,0.31,-9.95,12.15,-2.50,-52.43,0.00,0.00,0.27,0.00,2
-0.56,0.47,-10.07,8.73,-3.66,0.55,0.00,0.00,0.26,0.00,2
-0.41,0.44,-9.91,22.09,3.85,0.12,0.00,0.00,0.33,0.00,2
-0.50,0.48,-9.98,17.58,-5.62,0.37,0.00,0.00,0.25,0.00,2
-0.42,0.49,-10.02,23.86,-0.24,-2.99,0.00,0.00,0.25,0.00,2
-0.43,0.46,-9.95,25.94,1.40,-0.85,0.00,0.00,0.26,0.00,2
-0.42,0.48,-10.00,21.24,-0.24,-0.24,0.00,0.00,0.25,0.00,2
-0.40,0.49,-9.97,22.52,0.98,-0.06,0.00,0.00,0.25,0.00,2
