accelX,accelY,accelZ,gyroX,gyroY,gyroZ,fsr1,fsr2,fsr3,fsr4,label
-0.02,-0.03,-1.24,2.56,0.12,-0.12,0.21,0.29,0.00,0.55,2
-0.02,-0.03,-1.24,2.44,0.24,-0.31,0.11,0.07,0.00,0.59,2
-0.01,-0.03,-1.25,2.87,0.12,-0.55,0.55,0.38,0.08,0.17,2
-0.02,-0.03,-1.25,3.05,0.06,-0.43,0.65,0.48,0.13,0.13,2
-0.02,-0.03,-1.24,2.87,0.00,-0.24,0.58,0.46,0.10,0.25,2
-0.02,-0.03,-1.25,2.87,0.12,-0.55,0.60,0.47,0.13,0.20,2
-0.01,-0.03,-1.25,2.69,0.31,-0.49,0.74,0.54,0.14,0.00,2
-0.02,-0.03,-1.24,2.81,-0.06,-0.43,0.77,0.51,0.20,0.07,2
-0.02,-0.03,-1.25,2.93,-0.06,-0.55,0.76,0.50,0.22,0.17,2
-0.02,-0.03,-1.24,2.87,0.12,-0.55,0.78,0.54,0.21,0.13,2
-0.02,-0.03,-1.25,2.87,0.00,-0.37,0.63,0.48,0.12,0.31,2
-0.02,-0.03,-1.25,2.87,-0.18,-0.61,0.66,0.50,0.15,0.30,2
-0.01,-0.03,-1.25,2.69,0.12,-0.61,0.62,0.49,0.13,0.34,2
-0.02,-0.03,-1.24,2.99,0.37,-0.24,0.60,0.47,0.12,0.41,2
-0.01,-0.03,-1.25,2.69,0.24,-0.49,0.66,0.44,0.17,0.32,2
-0.02,-0.03,-1.24,2.99,0.00,-0.43,0.66,0.48,0.14,0.32,2
-0.01,-0.03,-1.24,3.05,0.00,-0.49,0.63,0.48,0.13,0.34,2
-0.02,-0.04,-1.25,2.93,0.06,-0.61,0.61,0.47,0.12,0.40,2
-0.01,-0.03,-1.25,2.87,0.00,-0.31,0.57,0.46,0.09,0.43,2
-0.02,-0.03,-1.25,2.87,0.06,-0.43,0.57,0.46,0.09,0.44,2
-0.02,-0.03,-1.24,3.11,0.24,-0.37,0.59,0.48,0.10,0.41,2
-0.02,-0.03,-1.25,2.99,0.12,-0.31,0.56,0.46,0.09,0.43,2
-0.02,-0.03,-1.24,2.99,0.18,-0.37,0.60,0.48,0.12,0.41,2
-0.01,-0.03,-1.25,2.81,0.12,-0.55,0.63,0.49,0.13,0.34,2
-0.02,-0.03,-1.24,3.17,0.18,-0.49,0.61,0.48,0.12,0.39,2
-0.02,-0.03,-1.25,2.93,0.12,-0.49,0.59,0.42,0.08,0.27,2
-0.02,-0.03,-1.24,2.69,0.18,-0.49,0.61,0.49,0.12,0.41,2
-0.02,-0.03,-1.25,2.93,0.12,-0.43,0.59,0.48,0.11,0.44,2
-0.02,-0.03,-1.24,2.69,-0.06,-0.24,0.61,0.49,0.12,0.40,2
-0.02,-0.04,-1.24,2.93,0.12,-0.49,0.64,0.51,0.13,0.36,2
-0.02,-0.03,-1.24,2.75,0.00,-0.49,0.63,0.50,0.13,0.35,2
-0.02,-0.03,-1.25,2.87,0.18,-0.37,0.49,0.43,0.00,0.46,2
-0.02,-0.03,-1.25,2.69,0.18,-0.31,0.54,0.47,0.08,0.40,2
-0.02,-0.03,-1.25,2.69,0.18,-0.12,0.56,0.47,0.08,0.38,2
-0.02,-0.03,-1.25,2.26,0.37,-0.55,0.44,0.19,0.16,0.61,2
-0.02,-0.03,-1.25,1.89,0.61,-0.49,0.00,0.00,0.00,0.00,2
-0.03,-0.03,-1.24,2.81,-0.18,-0.79,0.00,0.00,0.00,0.71,2
-0.03,-0.03,-1.24,2.38,0.12,-0.55,0.35,0.29,0.00,0.52,2
-0.03,-0.03,-1.25,3.05,0.06,-0.43,0.69,0.52,0.14,0.21,2
-0.03,-0.03,-1.25,3.05,0.18,-0.43,0.68,0.52,0.14,0.28,2
-0.03,-0.03,-1.24,3.05,0.24,-0.12,0.71,0.53,0.16,0.31,2
-0.03,-0.03,-1.25,2.69,0.31,-0.55,0.54,0.46,0.08,0.41,2
-0.03,-0.03,-1.25,2.87,-0.12,-0.37,0.54,0.46,0.09,0.42,2
-0.03,-0.03,-1.25,2.99,0.00,-0.49,0.59,0.49,0.11,0.32,2
-0.03,-0.03,-1.24,2.93,0.00,-0.49,0.58,0.50,0.10,0.34,2
-0.03,-0.03,-1.25,2.87,0.00,-0.55,0.62,0.53,0.12,0.41,2
-0.03,-0.03,-1.25,2.99,0.12,-0.73,0.63,0.53,0.13,0.35,2
-0.03,-0.03,-1.24,2.69,0.18,-0.43,0.60,0.51,0.12,0.32,2
-0.03,-0.03,-1.25,2.75,0.12,-0.43,0.59,0.50,0.11,0.37,2
-0.03,-0.03,-1.25,2.81,0.12,-0.24,0.58,0.48,0.12,0.44,2
-0.03,-0.03,-1.25,3.11,-0.06,-0.24,0.46,0.42,0.00,0.55,2
-0.03,-0.03,-1.25,2.56,0.06,-0.61,0.42,0.41,0.00,0.59,2
-0.03,-0.02,-1.24,2.14,-0.43,-0.61,0.35,0.34,0.00,0.61,2
-0.02,-0.03,-1.24,2.87,-0.06,-0.49,0.22,0.00,0.20,0.48,2
-0.03,-0.03,-1.24,2.93,-0.06,-0.79,0.87,0.57,0.26,0.00,2
-0.03,-0.03,-1.24,2.87,0.31,-0.49,0.39,0.27,0.07,0.52,2
-0.02,-0.04,-1.24,2.50,-0.12,-0.43,0.32,0.28,0.00,0.62,2
-0.03,-0.03,-1.24,2.81,0.00,-0.67,0.35,0.25,0.00,0.45,2
-0.03,-0.03,-1.25,2.81,0.37,-0.49,0.43,0.33,0.04,0.57,2
-0.03,-0.03,-1.25,2.69,0.49,-0.49,0.33,0.28,0.00,0.62,2
-0.03,-0.03,-1.24,2.93,-0.18,-0.43,0.33,0.28,0.00,0.64,2
-0.03,-0.03,-1.25,2.99,0.31,-0.31,0.34,0.29,0.00,0.64,2
-0.03,-0.04,-1.25,2.99,0.49,-0.37,0.34,0.29,0.00,0.64,2
-0.03,-0.03,-1.25,2.99,-0.12,-0.12,0.34,0.29,0.00,0.65,2
-0.03,-0.03,-1.24,3.05,0.24,-0.49,0.22,0.00,0.11,0.67,2
-0.03,-0.03,-1.24,2.93,0.24,-0.37,0.49,0.35,0.08,0.41,2
-0.03,-0.03,-1.25,2.81,0.12,-0.61,0.41,0.32,0.00,0.53,2
-0.03,-0.03,-1.24,2.81,0.06,-0.73,0.35,0.29,0.00,0.59,2
-0.03,-0.03,-1.25,2.81,0.18,-0.49,0.39,0.31,0.00,0.57,2
-0.03,-0.03,-1.24,2.93,-0.18,-0.31,0.55,0.41,0.06,0.31,2
-0.03,-0.03,-1.25,2.69,0.18,-0.37,0.52,0.38,0.09,0.47,2
-0.03,-0.03,-1.25,2.81,0.31,-0.31,0.63,0.41,0.17,0.41,2
-0.03,-0.03,-1.25,2.99,0.06,-0.43,0.59,0.39,0.15,0.50,2
-0.03,-0.03,-1.24,2.69,0.00,-0.49,0.62,0.34,0.21,0.41,2
-0.03,-0.03,-1.24,2.87,-0.06,-0.49,0.64,0.37,0.21,0.43,2
-0.03,-0.03,-1.25,2.99,0.24,-0.61,0.58,0.33,0.19,0.46,2
-0.03,-0.03,-1.24,2.69,-0.18,-0.61,0.64,0.29,0.25,0.46,2
-0.03,-0.03,-1.24,2.69,0.31,-0.31,0.55,0.21,0.27,0.51,2
-0.03,-0.03,-1.25,2.69,0.18,-0.55,0.50,0.33,0.13,0.55,2
-0.03,-0.04,-1.23,4.15,0.37,-0.49,0.41,0.23,0.07,0.61,2
-0.03,-0.03,-1.25,3.36,0.12,-0.49,0.00,0.00,0.00,0.00,2
-0.03,-0.03,-1.25,3.85,0.67,-0.31,0.44,0.29,0.00,0.52,2
-0.03,-0.03,-1.25,2.69,0.06,-0.31,0.64,0.45,0.10,0.23,2
-0.03,-0.03,-1.25,2.93,0.12,-0.55,0.67,0.47,0.11,0.26,2
-0.03,-0.03,-1.25,2.75,-0.06,-0.61,0.69,0.48,0.12,0.27,2
-0.03,-0.03,-1.25,2.99,-0.06,-0.61,0.64,0.41,0.09,0.16,2
-0.03,-0.03,-1.25,3.17,0.12,-0.43,0.57,0.18,0.31,0.27,2
-0.03,-0.03,-1.24,2.99,0.12,-0.37,0.69,0.35,0.28,0.21,2
-0.03,-0.03,-1.25,3.23,0.43,-0.37,0.65,0.38,0.23,0.29,2
-0.03,-0.03,-1.25,2.93,0.24,-0.18,0.60,0.41,0.18,0.43,2
-0.03,-0.03,-1.25,2.75,0.00,-0.49,0.55,0.41,0.13,0.46,2
-0.03,-0.03,-1.25,2.93,-0.18,-0.67,0.51,0.39,0.12,0.45,2
-0.03,-0.03,-1.25,2.93,0.12,-0.43,0.56,0.42,0.14,0.49,2
-0.03,-0.03,-1.24,2.93,-0.12,-0.37,0.52,0.40,0.12,0.48,2
-0.03,-0.03,-1.25,2.93,0.18,-0.24,0.54,0.41,0.13,0.45,2
-0.03,-0.03,-1.25,2.81,0.24,-0.61,0.53,0.41,0.13,0.48,2
-0.03,-0.02,-1.25,2.87,0.31,-0.06,0.33,0.32,0.00,0.58,2
-0.03,-0.03,-1.24,2.62,0.00,-0.37,0.32,0.30,0.00,0.64,2
-0.03,-0.03,-1.25,2.81,0.12,-0.43,0.41,0.33,0.00,0.60,2
-0.03,-0.03,-1.24,2.81,0.24,-0.61,0.42,0.34,0.00,0.61,2
-0.03,-0.03,-1.25,2.99,0.31,-0.79,0.45,0.35,0.00,0.56,2
-0.03,-0.03,-1.24,2.75,-0.12,-0.55,0.37,0.32,0.00,0.62,2
-0.04,-0.03,-1.24,2.81,0.24,-0.49,0.46,0.37,0.00,0.53,2
-0.03,-0.04,-1.24,3.48,0.43,-0.73,0.49,0.28,0.08,0.65,2
-0.03,-0.03,-1.25,2.87,-0.06,-0.55,0.53,0.17,0.24,0.56,2
-0.03,-0.03,-1.25,2.62,-0.92,-0.43,0.00,0.00,0.10,0.00,2
-0.03,-0.03,-1.25,3.54,-0.31,-0.31,0.05,0.13,0.00,0.00,2
-0.02,-0.03,-1.24,3.17,0.00,-0.31,0.00,0.00,0.00,0.00,2
-0.03,-0.03,-1.24,2.69,-0.06,-0.55,0.50,0.24,0.11,0.58,2
-0.03,-0.03,-1.24,2.56,0.00,-0.12,0.61,0.38,0.19,0.34,2
-0.03,-0.03,-1.25,2.87,0.18,-0.55,0.71,0.45,0.23,0.22,2
-0.03,-0.03,-1.25,2.81,-0.31,-0.55,0.55,0.44,0.09,0.41,2
-0.03,-0.03,-1.25,2.75,0.06,-0.43,0.53,0.45,0.07,0.45,2
-0.03,-0.03,-1.25,2.62,0.12,-0.55,0.45,0.44,0.00,0.52,2
-0.03,-0.03,-1.25,2.75,-0.06,-0.37,0.50,0.47,0.05,0.51,2
-0.02,-0.03,-1.25,2.81,0.12,-0.49,0.46,0.46,0.00,0.54,2
-0.03,-0.03,-1.25,2.81,0.18,-0.49,0.43,0.45,0.05,0.54,2
-0.03,-0.03,-1.24,3.11,0.24,-0.37,0.46,0.46,0.00,0.55,2
-0.03,-0.03,-1.24,2.99,-0.12,-0.55,0.51,0.48,0.05,0.53,2
-0.03,-0.03,-1.25,3.05,0.00,-0.31,0.50,0.48,0.05,0.53,2
-0.03,-0.03,-1.24,2.93,0.00,-0.49,0.46,0.46,0.00,0.56,2
-0.03,-0.03,-1.25,2.75,0.18,-0.31,0.47,0.42,0.07,0.59,2
-0.03,-0.03,-1.25,2.81,0.06,-0.55,0.73,0.53,0.20,0.28,2
-0.02,-0.03,-1.24,3.11,-0.06,-0.73,0.58,0.49,0.10,0.48,2
-0.03,-0.03,-1.24,2.81,-0.06,-0.55,0.50,0.47,0.04,0.53,2
-0.03,-0.03,-1.24,2.81,-0.31,-0.37,0.55,0.51,0.07,0.54,2
-0.03,-0.03,-1.24,3.11,0.12,-0.67,0.42,0.40,0.00,0.51,2
-0.03,-0.03,-1.25,3.05,0.00,-0.61,0.49,0.47,0.00,0.56,2
-0.03,-0.03,-1.24,2.81,-0.12,-0.55,0.51,0.48,0.05,0.55,2
-0.03,-0.03,-1.25,3.11,-0.12,-0.37,0.00,0.00,0.22,0.63,2
-0.03,-0.03,-1.24,2.81,-0.06,-0.55,0.56,0.08,0.49,0.07,2
-0.03,-0.03,-1.25,2.93,0.12,-0.61,0.64,0.15,0.48,0.05,2
-0.03,-0.03,-1.24,3.60,0.43,-0.24,0.47,0.12,0.19,0.32,2
-0.04,-0.03,-1.25,1.95,-1.16,-0.43,0.00,0.00,0.00,0.00,2
-0.01,-0.03,-1.25,2.26,0.49,-0.37,0.58,0.37,0.00,0.16,2
-0.01,-0.03,-1.24,2.93,0.12,-0.55,0.83,0.53,0.12,0.00,2
-0.01,-0.03,-1.24,3.05,-0.18,-0.43,0.65,0.48,0.06,0.28,2
-0.02,-0.02,-1.26,2.75,0.85,-0.49,0.00,0.00,0.00,0.00,2
-0.15,0.01,-0.88,33.39,6.23,-12.33,0.00,0.00,0.00,0.00,2
0.00,0.16,-1.27,-5.43,-0.67,-1.53,0.65,0.44,0.00,0.00,2
-0.05,0.10,-1.26,15.01,-0.49,-1.04,0.89,0.58,0.14,0.00,2
-0.11,0.16,-1.27,-3.60,-5.00,1.89,0.05,0.11,0.00,0.30,2
-0.04,0.14,-1.24,3.05,0.06,-0.37,0.00,0.00,0.00,0.00,2
-0.05,0.12,-1.25,8.85,0.00,0.18,0.00,0.00,0.00,0.00,2
-0.05,0.00,-1.25,-12.70,0.55,7.51,0.00,0.00,0.00,0.30,2
-0.06,-0.03,-1.29,6.96,-3.30,12.08,0.26,0.21,0.00,0.00,2
-0.02,-0.03,-1.13,14.22,-2.69,-4.52,0.21,0.18,0.00,0.10,2
-0.62,-0.80,-0.36,1.95,-2.20,0.00,0.00,0.00,0.00,0.06,2
-0.56,-0.82,-0.37,3.48,2.75,-0.06,0.00,0.00,0.00,0.00,2
-0.32,-0.88,-0.31,48.71,89.05,28.75,0.00,0.00,0.00,0.00,2
-0.20,-0.91,-0.42,9.52,33.08,29.72,0.16,0.17,0.00,0.51,2
-0.21,-0.92,-0.42,14.04,14.28,-26.61,0.41,0.31,0.00,0.53,2
-0.32,-1.02,-0.41,14.83,14.83,4.64,0.00,0.00,0.00,0.00,2
0.10,-1.35,0.11,56.34,72.63,-44.74,0.00,0.00,0.00,0.08,2
0.05,-1.00,-0.50,3.78,-3.11,-24.84,0.35,0.25,0.00,0.35,2
-0.34,-1.07,-0.54,26.18,171.08,7.45,0.00,0.00,0.00,0.00,2
0.40,-1.38,-0.38,70.86,-13.55,67.69,0.00,0.00,0.00,0.34,2
-0.01,-0.79,-0.50,25.02,12.57,8.48,0.59,0.18,0.15,0.28,2
-0.46,-0.87,-0.53,16.42,20.39,-55.91,0.93,0.42,0.00,0.00,2
-0.57,-0.67,-0.39,-37.66,-65.92,83.37,0.00,0.00,0.00,0.00,2
-0.22,-1.04,-0.47,16.85,-11.29,-25.09,0.38,0.00,0.28,0.47,2
-0.35,-0.89,-0.50,-6.35,9.34,-37.84,0.95,0.38,0.11,0.00,2
-0.49,-1.02,-0.61,-122.99,-145.45,120.54,0.00,0.00,0.00,0.00,2
0.32,-0.88,-0.59,12.08,16.30,-37.35,0.53,0.19,0.07,0.48,2
-0.19,-0.93,-0.52,2.14,-5.13,-4.33,0.58,0.28,0.07,0.51,2
-0.21,-0.94,-0.54,2.81,-4.39,2.26,0.66,0.40,0.06,0.30,2
-0.19,-0.91,-0.55,3.30,0.79,0.92,0.80,0.38,0.16,0.22,2
-0.27,-0.92,-0.54,-1.71,0.31,4.15,0.85,0.35,0.23,0.14,2
-0.19,-0.91,-0.64,-8.24,-12.45,-21.55,0.62,0.42,0.00,0.08,2
-0.63,-0.95,-0.29,-52.06,-36.44,-7.87,0.00,0.00,0.00,0.00,2
-0.29,-0.76,-0.41,12.70,14.65,18.62,1.00,0.32,0.15,0.00,2
-0.26,-0.91,-0.52,-4.82,-4.64,-5.13,0.82,0.44,0.00,0.00,2
-0.39,-0.88,-0.52,15.75,-4.15,-2.93,0.90,0.49,0.00,0.00,2
-0.35,-0.86,-0.53,1.71,-11.23,-7.32,1.03,0.51,0.07,0.00,2
-0.38,-0.87,-0.53,4.64,1.22,-2.01,1.04,0.51,0.07,0.00,2
-0.42,-0.84,-0.54,-10.50,2.56,9.03,1.08,0.53,0.15,0.00,2
-0.29,-0.92,-0.39,11.29,-7.14,-0.55,0.00,0.00,0.00,0.72,2
-0.17,-0.92,-0.42,3.97,-0.98,-0.12,0.00,0.00,0.00,0.67,2
-0.17,-0.98,-0.46,8.61,6.53,-1.59,0.00,0.00,0.00,0.75,2
-0.22,-0.85,-0.56,0.98,8.91,-12.63,1.09,0.38,0.47,0.00,2
-0.09,-0.81,-0.54,75.26,8.85,-76.17,0.00,0.00,0.00,0.00,2
-0.14,-1.00,-0.52,4.21,-19.29,-16.17,0.70,0.13,0.23,0.19,2
-0.58,-0.73,-0.43,-17.03,-38.39,184.27,0.00,0.00,0.00,0.00,2
0.00,-0.93,-0.50,17.82,48.58,1.46,0.74,0.33,0.18,0.09,2
-0.77,-0.85,-0.44,-90.03,-67.38,133.00,0.00,0.00,0.00,0.00,2
-0.18,-0.94,-0.44,-36.74,49.32,-6.41,0.45,0.00,0.09,0.59,2
-0.16,-1.02,-0.42,6.90,33.94,-4.76,0.54,0.00,0.32,0.30,2
-0.33,-0.90,-0.28,-16.60,-9.83,61.58,0.00,0.00,0.00,0.00,2
-0.25,-0.94,-0.44,23.32,-43.88,-14.47,0.12,0.00,0.00,0.53,2
-0.10,-0.95,-0.48,11.72,3.23,4.09,0.33,0.22,0.00,0.54,2
-0.13,-0.94,-0.50,4.88,-3.85,-3.85,0.48,0.32,0.00,0.50,2
-0.14,-0.94,-0.53,3.54,-3.78,-1.71,0.50,0.34,0.00,0.52,2
-0.16,-0.94,-0.51,1.77,1.89,-0.92,0.53,0.39,0.00,0.54,2
-0.13,-0.96,-0.53,-4.46,11.96,-2.69,0.40,0.00,0.18,0.56,2
-0.15,-0.94,-0.52,2.93,17.27,11.29,0.57,0.23,0.16,0.47,2
-0.12,-0.94,-0.53,2.62,0.67,0.43,0.65,0.27,0.24,0.34,2
-0.20,-0.97,-0.47,2.75,-3.66,2.26,0.45,0.06,0.31,0.39,2
-0.12,-0.95,-0.49,3.60,3.78,-0.73,0.48,0.09,0.31,0.44,2
-0.11,-0.95,-0.50,1.46,1.34,0.55,0.49,0.07,0.32,0.43,2
-0.13,-0.95,-0.49,4.15,0.12,-1.10,0.52,0.09,0.32,0.46,2
-0.12,-0.95,-0.49,5.19,-0.73,-1.71,0.52,0.09,0.30,0.49,2
-0.35,-0.90,-0.45,-36.80,49.56,37.05,0.59,0.22,0.11,0.53,2
-0.14,-0.94,-0.50,4.09,-4.46,-0.73,0.63,0.20,0.17,0.58,2
-0.09,-0.94,-0.52,1.59,2.81,2.38,0.51,0.17,0.09,0.63,2
-0.08,-0.94,-0.50,0.55,0.92,1.77,0.50,0.17,0.08,0.63,2
-0.13,-0.94,-0.50,2.62,2.08,-0.12,0.53,0.18,0.12,0.62,2
-0.13,-0.95,-0.51,-5.13,-2.38,4.46,0.50,0.18,0.10,0.62,2
-0.09,-0.94,-0.50,5.98,-0.85,-1.40,0.42,0.40,0.00,0.66,2
-0.11,-0.94,-0.51,2.87,1.34,-1.28,0.46,0.41,0.00,0.67,2
-0.12,-0.95,-0.50,2.50,1.28,0.06,0.47,0.41,0.00,0.65,2
-0.13,-0.94,-0.52,3.42,0.18,-0.49,0.51,0.43,0.00,0.63,2
-0.13,-0.95,-0.53,2.69,-1.10,-1.16,0.52,0.43,0.00,0.64,2
-0.12,-0.94,-0.51,2.62,2.14,-0.18,0.48,0.42,0.00,0.66,2
-0.12,-0.94,-0.51,3.72,0.92,-0.55,0.48,0.42,0.00,0.67,2
-0.13,-0.94,-0.52,2.99,2.93,-1.04,0.45,0.40,0.00,0.69,2
-0.13,-0.94,-0.51,3.17,0.37,-0.49,0.43,0.41,0.00,0.76,2
-0.12,-0.95,-0.51,2.87,-0.37,-1.28,0.40,0.38,0.00,0.71,2
-0.13,-0.95,-0.51,1.77,0.61,-1.04,0.45,0.42,0.00,0.76,2
-0.12,-0.94,-0.52,2.99,0.55,-0.49,0.47,0.43,0.00,0.75,2
-0.13,-0.95,-0.52,2.14,1.59,0.24,0.57,0.48,0.00,0.63,2
-0.13,-0.94,-0.52,1.22,1.71,1.04,0.53,0.47,0.00,0.70,2
-0.13,-0.94,-0.52,1.77,2.32,1.40,0.58,0.50,0.00,0.68,2
-0.12,-0.95,-0.52,2.87,-0.67,-1.10,0.50,0.47,0.00,0.73,2
-0.13,-0.94,-0.50,2.62,0.18,-0.79,0.45,0.42,0.00,0.63,2
-0.13,-0.94,-0.51,3.97,-1.59,0.55,0.44,0.42,0.00,0.70,2
-0.13,-0.95,-0.50,1.40,0.98,-0.73,0.37,0.38,0.00,0.72,2
-0.13,-0.95,-0.50,3.91,-0.61,-0.85,0.37,0.38,0.00,0.72,2
-0.12,-0.94,-0.51,3.85,2.93,-0.49,0.45,0.44,0.00,0.75,2
-0.14,-0.94,-0.51,1.77,-2.87,-0.92,0.42,0.42,0.00,0.68,2
-0.14,-0.94,-0.50,2.01,1.22,0.61,0.42,0.42,0.00,0.69,2
-0.14,-0.94,-0.51,2.69,0.37,-0.67,0.39,0.40,0.00,0.71,2
-0.14,-0.94,-0.51,2.99,-0.06,-1.04,0.39,0.40,0.00,0.72,2
-0.16,-0.95,-0.50,3.11,2.75,-1.89,0.37,0.39,0.00,0.72,2
-0.15,-0.94,-0.49,2.50,0.06,-1.16,0.40,0.41,0.00,0.79,2
-0.14,-0.94,-0.48,4.33,0.98,-0.61,0.34,0.33,0.00,0.60,2
-0.14,-0.95,-0.49,2.75,-0.06,-0.43,0.37,0.38,0.00,0.73,2
-0.14,-0.94,-0.50,2.32,0.55,-0.37,0.40,0.40,0.00,0.72,2
-0.14,-0.94,-0.50,2.69,0.55,-0.18,0.39,0.40,0.00,0.72,2
-0.15,-0.94,-0.49,2.20,-0.73,-0.73,0.39,0.39,0.00,0.72,2
-0.15,-0.94,-0.51,2.44,-3.30,-2.69,0.44,0.43,0.00,0.65,2
-0.15,-0.94,-0.52,2.81,-0.61,-0.18,0.48,0.47,0.00,0.71,2
-0.13,-0.94,-0.52,3.11,0.49,-1.10,0.49,0.47,0.00,0.75,2
-0.14,-0.95,-0.51,2.26,-0.73,-0.49,0.45,0.44,0.00,0.72,2
-0.14,-0.94,-0.52,3.97,-0.37,-1.16,0.49,0.45,0.00,0.66,2
-0.13,-0.94,-0.52,3.85,-0.67,-1.28,0.46,0.45,0.00,0.69,2
-0.14,-0.94,-0.52,2.50,-1.53,-1.04,0.46,0.45,0.00,0.70,2
-0.13,-0.95,-0.51,1.59,-0.06,0.49,0.45,0.45,0.00,0.70,2
-0.13,-0.94,-0.51,3.48,2.08,0.61,0.45,0.44,0.00,0.70,2
-0.14,-0.94,-0.53,3.97,-1.71,-2.44,0.54,0.48,0.00,0.61,2
-0.15,-0.94,-0.53,2.14,-2.01,-0.79,0.52,0.47,0.00,0.64,2
-0.12,-0.94,-0.53,3.48,-0.85,-1.22,0.51,0.46,0.00,0.65,2
-0.13,-0.93,-0.54,1.89,-0.06,-1.89,0.55,0.49,0.00,0.60,2
-0.14,-0.94,-0.54,3.60,-2.26,-2.26,0.53,0.48,0.00,0.62,2
-0.18,-0.95,-0.51,3.17,-6.59,0.31,0.43,0.43,0.00,0.70,2
-0.13,-0.95,-0.53,4.09,-0.24,0.73,0.37,0.39,0.00,0.73,2
-0.13,-0.95,-0.51,1.77,0.00,0.06,0.35,0.39,0.00,0.81,2
-0.14,-0.95,-0.52,3.85,-3.60,-3.17,0.39,0.41,0.00,0.79,2
-0.13,-0.94,-0.51,2.01,-0.37,-0.12,0.40,0.42,0.00,0.79,2
-0.12,-0.95,-0.52,1.59,-0.55,1.10,0.36,0.39,0.00,0.82,2
-0.14,-0.95,-0.49,0.49,5.31,-0.18,0.29,0.38,0.00,0.82,2
-0.15,-0.96,-0.49,-5.25,3.36,-3.23,0.41,0.38,0.00,0.71,2
-0.13,-0.96,-0.28,-16.78,13.73,1.71,0.07,0.08,0.00,0.28,2
-0.28,-0.88,-0.19,41.75,52.00,-15.63,0.00,0.00,0.00,0.00,2
-0.12,-0.88,-0.50,21.73,8.06,16.91,0.28,0.19,0.00,0.45,2
-0.12,-0.95,-0.54,7.45,-5.86,1.77,0.63,0.42,0.07,0.26,2
-0.18,-0.93,-0.53,-1.22,2.75,1.83,0.67,0.43,0.08,0.37,2
-0.19,-0.93,-0.51,4.64,-4.46,-4.76,0.66,0.44,0.08,0.38,2
-0.16,-0.94,-0.53,-1.89,-13.43,-3.36,0.50,0.37,0.00,0.51,2
-0.21,-0.94,-0.51,0.49,-0.12,-1.22,0.37,0.34,0.00,0.50,2
-0.21,-0.94,-0.50,3.72,1.10,-3.17,0.71,0.31,0.15,0.21,2
-0.21,-0.94,-0.50,2.26,0.43,-0.12,0.66,0.31,0.12,0.32,2
-0.22,-0.94,-0.50,5.55,-2.62,-1.71,0.75,0.36,0.17,0.16,2
-0.21,-0.95,-0.50,-1.71,14.28,2.75,0.69,0.25,0.19,0.21,2
-0.16,-0.81,-0.56,-14.77,13.85,30.58,0.39,0.13,0.00,0.41,2
-0.18,-0.93,-0.53,10.50,-1.83,-2.26,0.46,0.27,0.00,0.48,2
-0.19,-0.92,-0.51,11.72,1.28,-10.93,0.62,0.27,0.09,0.35,2
-0.34,-0.87,-0.54,6.47,-6.35,-11.78,0.94,0.41,0.26,0.00,2
-0.23,-0.92,-0.50,-5.62,6.53,23.07,0.58,0.28,0.09,0.36,2
-0.30,-0.92,-0.51,10.13,-5.43,-18.55,0.41,0.37,0.00,0.40,2
-0.41,-0.85,-0.60,-4.64,-2.20,13.06,0.76,0.60,0.05,0.00,2
-0.16,-0.95,-0.52,2.32,7.69,8.73,0.31,0.29,0.00,0.59,2
-0.14,-0.96,-0.49,-1.28,2.93,0.31,0.23,0.24,0.00,0.64,2
-0.17,-0.95,-0.48,2.87,-3.72,-0.24,0.25,0.25,0.00,0.65,2
-0.11,-0.96,-0.44,-8.24,17.70,9.89,0.22,0.23,0.00,0.68,2
-0.28,-0.99,-0.30,-11.23,15.32,0.85,0.00,0.00,0.00,0.00,2
-0.00,-0.97,-0.29,6.47,45.53,15.20,0.00,0.00,0.00,0.00,2
-0.14,-0.99,-0.36,13.55,12.15,8.06,0.22,0.00,0.00,0.05,2
-0.12,-0.99,-0.36,3.78,-11.84,-3.66,0.15,0.00,0.00,0.29,2
-0.09,-0.98,-0.36,5.37,-1.46,-1.77,0.16,0.00,0.00,0.34,2
-0.40,-0.92,-0.45,-14.71,59.02,23.93,0.00,0.00,0.00,0.05,2
-0.25,-0.99,-0.38,11.05,-1.77,-3.60,0.04,0.00,0.00,0.00,2
-0.30,-1.03,-0.46,6.84,-34.91,-23.74,0.06,0.00,0.00,0.00,2
0.23,-0.96,-0.40,-5.00,-21.61,-13.55,0.17,0.00,0.00,0.29,2
-0.18,-0.96,-0.34,0.18,6.29,-6.16,0.45,0.00,0.14,0.00,2
-0.14,-1.06,-0.52,-13.06,36.07,13.61,0.48,0.05,0.15,0.00,2
-0.10,-1.00,-0.44,29.97,27.04,0.92,0.50,0.07,0.16,0.00,2
-0.17,-1.01,-0.60,31.49,-41.81,-15.50,0.46,0.06,0.14,0.00,2
-0.15,-0.97,-0.34,-81.54,85.75,36.68,0.45,0.06,0.16,0.00,2
-0.10,-0.87,-0.73,-16.11,14.77,6.16,0.45,0.07,0.14,0.00,2
-0.21,-0.89,-0.63,17.09,-15.69,7.26,0.35,0.00,0.06,0.00,2
-0.18,-0.71,-1.28,71.35,-64.03,-75.93,0.32,0.04,0.00,0.00,2
-0.03,0.16,-1.23,3.05,0.12,-0.49,0.31,0.26,0.00,0.43,2
-0.04,0.17,-1.24,3.05,0.24,-0.43,0.29,0.22,0.00,0.50,2
-0.04,0.16,-1.23,2.93,-0.24,-0.49,0.60,0.23,0.26,0.30,2
-0.04,0.16,-1.24,3.11,-0.06,-0.49,0.62,0.37,0.21,0.35,2
-0.04,0.16,-1.23,2.81,0.00,-0.67,0.77,0.47,0.25,0.19,2
-0.04,0.17,-1.24,2.99,0.37,-0.49,0.33,0.09,0.24,0.33,2
-0.04,0.16,-1.23,2.87,0.37,-0.61,0.74,0.47,0.24,0.27,2
-0.04,0.16,-1.24,2.99,0.24,-0.61,0.75,0.49,0.23,0.28,2
-0.04,0.16,-1.23,3.11,0.18,-0.73,0.77,0.50,0.23,0.30,2
-0.04,0.16,-1.24,3.23,0.31,-0.43,0.76,0.50,0.23,0.31,2
-0.04,0.16,-1.24,2.87,0.37,-0.73,0.56,0.45,0.10,0.38,2
-0.04,0.16,-1.24,3.17,-0.06,-0.49,0.56,0.44,0.11,0.40,2
-0.03,0.16,-1.23,2.99,-0.06,-0.55,0.56,0.45,0.11,0.41,2
-0.04,0.16,-1.24,3.17,0.24,-0.49,0.59,0.46,0.13,0.38,2
-0.04,0.17,-1.25,2.69,0.06,-0.37,0.33,0.21,0.00,0.00,2
-0.05,0.17,-1.23,3.11,0.31,-0.37,0.30,0.22,0.00,0.58,2
-0.05,0.17,-1.23,2.69,-0.12,-0.67,0.35,0.27,0.00,0.62,2
-0.05,0.17,-1.24,3.17,0.12,-0.43,0.36,0.28,0.00,0.63,2
-0.05,0.18,-1.24,2.87,0.24,-0.43,0.44,0.31,0.00,0.49,2
-0.05,0.17,-1.24,2.56,0.24,-0.49,0.45,0.31,0.00,0.61,2
-0.05,0.18,-1.24,2.87,0.18,-0.49,0.35,0.27,0.00,0.65,2
-0.05,0.17,-1.24,3.05,0.24,-0.37,0.70,0.39,0.19,0.40,2
-0.05,0.17,-1.23,2.56,0.12,-0.61,0.75,0.45,0.22,0.37,2
-0.05,0.17,-1.23,2.99,0.12,-0.43,0.64,0.42,0.16,0.42,2
-0.05,0.17,-1.23,3.11,-0.06,-0.61,0.54,0.38,0.10,0.50,2
-0.05,0.18,-1.24,2.87,0.00,-0.61,0.33,0.17,0.00,0.42,2
-0.05,0.18,-1.23,2.99,0.31,-0.43,0.37,0.27,0.00,0.59,2
-0.05,0.17,-1.23,2.87,0.00,-0.43,0.37,0.19,0.00,0.58,2
-0.05,0.17,-1.24,2.81,0.12,-0.55,0.42,0.27,0.00,0.59,2
-0.05,0.17,-1.23,3.05,0.12,-0.43,0.48,0.31,0.09,0.55,2
-0.05,0.18,-1.23,2.87,-0.12,-0.43,0.53,0.35,0.11,0.61,2
-0.05,0.17,-1.22,2.87,0.24,-0.49,0.45,0.31,0.07,0.58,2
-0.05,0.17,-1.23,2.69,0.00,-0.67,0.45,0.34,0.07,0.54,2
-0.05,0.17,-1.24,2.99,0.24,-0.37,0.67,0.46,0.19,0.34,2
-0.05,0.17,-1.23,2.87,0.24,-0.49,0.45,0.37,0.06,0.53,2
-0.05,0.17,-1.24,2.75,0.06,-0.67,0.40,0.34,0.00,0.57,2
-0.05,0.17,-1.23,3.17,0.12,-0.55,0.29,0.29,0.00,0.58,2
-0.05,0.18,-1.23,3.11,0.12,-0.43,0.34,0.32,0.00,0.53,2
-0.05,0.17,-1.24,2.87,0.06,-0.55,0.39,0.33,0.00,0.60,2
-0.05,0.17,-1.23,2.81,0.24,-0.37,0.32,0.31,0.00,0.63,2
-0.05,0.17,-1.24,2.69,0.12,-0.61,0.42,0.35,0.05,0.56,2
-0.05,0.17,-1.23,2.81,0.12,-0.55,0.40,0.35,0.05,0.58,2
-0.05,0.17,-1.24,2.75,0.31,-0.43,0.34,0.32,0.00,0.60,2
-0.05,0.17,-1.23,2.87,0.12,-0.55,0.37,0.33,0.00,0.59,2
-0.04,0.17,-1.23,2.62,0.12,-0.37,0.38,0.33,0.00,0.58,2
-0.05,0.17,-1.23,2.87,-0.06,-0.55,0.38,0.33,0.00,0.57,2
-0.05,0.18,-1.23,2.62,0.12,-0.43,0.36,0.32,0.00,0.59,2
-0.05,0.18,-1.23,3.30,0.00,-0.49,0.36,0.33,0.00,0.58,2
-0.05,0.18,-1.23,2.87,0.18,-0.67,0.38,0.33,0.00,0.57,2
-0.05,0.17,-1.23,2.99,0.06,-0.61,0.40,0.34,0.05,0.54,2
-0.05,0.17,-1.23,3.05,0.06,-0.67,0.41,0.35,0.05,0.52,2
-0.05,0.18,-1.23,2.75,0.12,-0.49,0.40,0.34,0.05,0.62,2
-0.05,0.18,-1.23,3.05,0.12,-0.79,0.45,0.36,0.07,0.57,2
-0.05,0.17,-1.23,2.87,0.24,-0.55,0.41,0.35,0.06,0.59,2
-0.05,0.18,-1.24,2.62,0.18,-0.73,0.40,0.35,0.05,0.61,2
-0.05,0.17,-1.24,3.11,0.06,-0.37,0.42,0.35,0.06,0.55,2
-0.05,0.17,-1.23,2.81,-0.18,-0.37,0.42,0.35,0.06,0.56,2
-0.05,0.17,-1.24,2.75,0.31,-0.43,0.33,0.32,0.00,0.57,2
-0.05,0.17,-1.23,2.87,0.06,-0.49,0.36,0.33,0.00,0.64,2
-0.05,0.17,-1.23,2.87,0.00,-0.55,0.64,0.45,0.18,0.33,2
-0.05,0.17,-1.23,2.93,0.06,-0.24,0.77,0.52,0.23,0.23,2
-0.05,0.17,-1.23,2.93,0.00,-0.49,0.62,0.49,0.16,0.41,2
-0.04,0.17,-1.23,2.81,0.00,-0.31,0.74,0.55,0.21,0.30,2
-0.06,0.17,-1.24,2.81,0.12,-0.43,0.48,0.42,0.07,0.54,2
-0.05,0.18,-1.23,2.99,0.12,-0.49,0.39,0.38,0.00,0.61,2
-0.05,0.18,-1.24,2.87,0.24,-0.31,0.41,0.39,0.00,0.61,2
-0.05,0.17,-1.24,2.81,0.12,-0.61,0.28,0.30,0.00,0.65,2
-0.05,0.17,-1.24,2.99,0.24,-0.37,0.29,0.32,0.00,0.68,2
-0.05,0.17,-1.23,2.69,0.12,-0.55,0.32,0.33,0.00,0.67,2
-0.05,0.18,-1.24,3.11,0.12,-0.31,0.39,0.37,0.00,0.65,2
-0.05,0.17,-1.23,2.99,0.06,-0.43,0.43,0.39,0.00,0.61,2
-0.05,0.17,-1.23,2.81,0.18,-0.49,0.44,0.40,0.00,0.63,2
-0.05,0.18,-1.23,2.87,0.00,-0.24,0.59,0.45,0.13,0.51,2
-0.05,0.17,-1.23,3.23,0.00,-0.31,0.50,0.42,0.07,0.57,2
-0.05,0.18,-1.23,2.81,0.12,-0.61,0.57,0.45,0.13,0.55,2
-0.05,0.18,-1.24,2.62,0.18,-0.61,0.55,0.42,0.12,0.60,2
-0.05,0.17,-1.23,2.87,-0.06,-0.73,0.07,0.14,0.00,0.82,2
-0.05,0.17,-1.24,3.05,-0.06,-0.31,0.00,0.00,0.00,0.77,2
-0.05,0.18,-1.24,2.81,0.06,-0.31,0.05,0.05,0.00,0.82,2
-0.05,0.18,-1.25,2.69,0.18,-0.55,0.00,0.05,0.00,0.77,2
-0.05,0.18,-1.23,3.05,-0.24,-0.49,0.09,0.14,0.00,0.71,2
-0.05,0.17,-1.23,2.93,0.12,-0.61,0.10,0.18,0.00,0.71,2
-0.05,0.17,-1.23,2.81,0.00,-0.49,0.12,0.18,0.00,0.65,2
-0.05,0.17,-1.23,2.93,0.49,-0.12,0.10,0.17,0.00,0.72,2
-0.05,0.17,-1.24,2.81,0.00,-0.43,0.11,0.18,0.00,0.73,2
-0.05,0.17,-1.23,2.99,0.00,-0.49,0.08,0.14,0.00,0.75,2
-0.05,0.17,-1.24,2.87,0.06,-0.31,0.10,0.17,0.00,0.74,2
-0.05,0.17,-1.24,3.05,0.31,-0.79,0.11,0.17,0.00,0.74,2
-0.05,0.17,-1.23,2.99,0.12,-0.73,0.30,0.29,0.00,0.66,2
-0.05,0.18,-1.24,2.87,0.18,-0.24,0.43,0.34,0.00,0.53,2
-0.05,0.17,-1.24,2.93,-0.06,-0.67,0.58,0.43,0.13,0.43,2
-0.05,0.17,-1.23,3.05,0.12,-0.55,0.59,0.42,0.15,0.48,2
-0.05,0.17,-1.24,2.93,0.06,-0.61,0.61,0.43,0.16,0.48,2
-0.05,0.17,-1.23,2.93,0.24,-0.61,0.62,0.44,0.18,0.46,2
-0.05,0.17,-1.24,2.99,0.12,-0.37,0.48,0.41,0.07,0.51,2
-0.05,0.17,-1.23,2.99,0.18,-0.61,0.39,0.35,0.00,0.62,2
-0.05,0.17,-1.24,2.75,0.00,-0.49,0.36,0.35,0.00,0.63,2
-0.05,0.17,-1.24,3.11,0.12,-0.49,0.40,0.36,0.00,0.62,2
-0.05,0.17,-1.24,3.05,0.00,-0.43,0.48,0.41,0.07,0.56,2
-0.05,0.17,-1.23,2.93,-0.06,-0.61,0.45,0.39,0.05,0.60,2
-0.05,0.17,-1.24,2.69,0.12,-0.43,0.50,0.41,0.08,0.57,2
-0.05,0.17,-1.23,3.05,-0.12,-0.61,0.52,0.42,0.09,0.53,2
-0.05,0.17,-1.24,2.69,0.24,-0.37,0.45,0.39,0.06,0.58,2
-0.05,0.17,-1.23,2.93,0.18,-0.55,0.48,0.41,0.07,0.55,2
-0.05,0.17,-1.24,3.05,0.00,-0.49,0.12,0.20,0.00,0.51,2
-0.05,0.18,-1.23,2.75,0.06,-0.67,0.00,0.00,0.00,0.00,2
-0.05,0.17,-1.23,2.93,-0.12,-0.61,0.00,0.00,0.00,0.00,2
-0.05,0.18,-1.23,2.75,0.00,-0.55,0.00,0.00,0.00,0.00,2
-0.05,0.17,-1.24,2.75,-0.06,-0.43,0.00,0.00,0.00,0.00,2
-0.05,0.17,-1.24,2.99,0.12,-0.37,0.00,0.00,0.00,0.00,2
-0.05,0.17,-1.24,2.93,0.00,-0.31,0.00,0.00,0.00,0.00,2
-0.05,0.18,-1.24,2.81,0.00,-0.24,0.00,0.00,0.00,0.00,2
-0.05,0.18,-1.23,2.81,0.12,-0.61,0.00,0.00,0.00,0.00,2
-0.05,0.17,-1.23,3.05,0.12,-0.37,0.00,0.00,0.00,0.00,2
-0.05,0.17,-1.23,2.81,0.31,-0.49,0.00,0.00,0.00,0.00,2
-0.05,0.17,-1.23,2.87,0.18,-0.49,0.00,0.00,0.00,0.00,2
-0.05,0.17,-1.23,2.93,-0.24,-0.49,0.00,0.00,0.00,0.00,2
-0.05,0.17,-1.23,2.87,0.37,-0.49,0.00,0.00,0.00,0.00,2
-0.05,0.17,-1.23,2.99,0.06,-0.49,0.00,0.00,0.00,0.00,2
-0.05,0.17,-1.23,3.05,0.24,-0.55,0.00,0.00,0.00,0.00,2
-0.05,0.17,-1.23,2.99,0.12,-0.49,0.00,0.00,0.00,0.00,2
-0.05,0.17,-1.24,2.93,0.00,-0.43,0.00,0.00,0.00,0.00,2
-0.05,0.17,-1.24,2.75,0.37,-0.37,0.00,0.00,0.00,0.00,2
-0.05,0.17,-1.23,2.56,0.06,-0.31,0.00,0.00,0.00,0.00,2
-0.05,0.18,-1.23,3.05,0.06,-0.67,0.00,0.00,0.00,0.00,2
-0.05,0.17,-1.23,3.11,-0.06,-0.49,0.00,0.00,0.00,0.00,2
0.03,-0.25,-1.26,28.63,-26.31,-87.59,0.00,0.00,0.00,0.00,2
-0.05,-0.05,-1.26,4.39,-0.31,-0.18,0.00,0.00,0.00,0.00,2
-0.24,0.99,-0.21,4.15,-7.32,-2.81,0.45,0.39,0.07,0.46,2
-0.28,0.97,-0.22,3.54,-1.71,1.77,0.53,0.41,0.11,0.33,2
-0.32,0.93,-0.26,-6.35,4.52,2.93,0.66,0.22,0.33,0.14,2
-0.33,1.25,-0.55,-86.73,-141.78,66.53,0.19,0.00,0.00,0.00,2
-0.07,1.20,0.10,-48.95,47.91,59.69,0.00,0.00,0.00,0.32,2
-0.33,1.08,-0.44,-70.80,-2.26,0.43,0.83,0.64,0.26,0.00,2
-0.15,0.85,-0.63,81.85,195.92,-54.93,0.00,0.00,0.00,0.00,2
-0.26,0.99,-0.31,-26.18,-8.61,5.07,0.82,0.41,0.39,0.00,2
-0.42,0.86,-0.70,-38.64,-3.91,-6.59,0.00,0.00,0.00,0.00,2
0.19,0.94,-0.19,7.57,0.12,54.08,0.00,0.10,0.00,0.38,2
-0.29,0.95,-0.21,-20.02,-20.57,2.93,0.37,0.40,0.00,0.37,2
-0.34,0.89,-0.77,-28.38,176.64,4.94,0.00,0.00,0.00,0.00,2
-0.49,0.93,-0.62,-106.20,164.00,-49.62,0.00,0.00,0.00,0.00,2
-1.04,1.01,0.21,-26.61,-67.87,17.21,0.18,0.12,0.00,0.59,2
-0.12,0.85,-0.67,138.00,26.79,32.41,0.00,0.00,0.00,0.00,2
0.05,1.05,-0.05,-46.57,5.49,-5.25,0.07,0.00,0.00,0.58,2
0.20,1.02,-0.03,-9.64,38.21,73.85,0.00,0.00,0.00,0.53,2
-0.14,1.00,-0.21,-13.67,9.70,-22.58,0.72,0.16,0.46,0.00,2
-0.10,1.01,-0.21,-3.60,6.53,-9.58,0.70,0.11,0.41,0.00,2
-0.15,1.02,-0.33,-3.36,4.76,-3.91,0.89,0.21,0.41,0.00,2
-0.15,1.01,-0.34,0.00,8.12,9.16,0.93,0.19,0.36,0.00,2
-0.19,0.99,-0.33,1.16,1.04,5.19,0.95,0.15,0.42,0.00,2
-0.18,0.97,-0.40,0.00,-15.32,0.24,0.97,0.00,0.49,0.00,2
0.01,1.06,-0.39,8.30,-28.63,4.58,0.00,0.00,0.00,0.00,2
-0.13,0.93,-0.38,19.84,-130.49,41.69,0.00,0.00,0.00,0.00,2
-0.18,1.04,-0.30,12.63,19.90,5.00,0.12,0.05,0.00,0.36,2
-0.16,0.99,-0.20,-2.99,-3.78,-3.85,0.19,0.30,0.00,0.34,2
-0.15,1.01,-0.19,3.54,-2.69,1.77,0.39,0.42,0.00,0.25,2
-0.16,1.00,-0.17,5.07,-2.20,-0.73,0.37,0.41,0.00,0.36,2
-0.17,0.99,-0.16,1.89,-0.49,0.24,0.37,0.40,0.00,0.38,2
-0.18,1.00,-0.18,2.99,0.92,-0.61,0.33,0.38,0.00,0.43,2
-0.18,1.00,-0.18,3.11,-0.24,-0.73,0.32,0.37,0.00,0.45,2
-0.18,1.00,-0.18,2.99,-0.67,0.06,0.32,0.38,0.00,0.45,2
-0.19,1.00,-0.18,2.56,1.16,-0.24,0.34,0.38,0.00,0.46,2
-0.19,1.00,-0.18,2.50,-0.18,-0.31,0.32,0.38,0.00,0.47,2
-0.20,1.00,-0.18,3.23,1.04,-0.18,0.31,0.37,0.00,0.48,2
-0.20,1.00,-0.18,3.48,-1.28,1.83,0.30,0.36,0.00,0.49,2
-0.23,0.99,-0.19,1.95,4.27,0.37,0.34,0.38,0.00,0.51,2
-0.23,0.98,-0.19,2.87,-0.24,-0.12,0.33,0.38,0.00,0.52,2
-0.21,0.99,-0.19,3.17,-1.53,-0.85,0.32,0.37,0.00,0.53,2
-0.21,1.00,-0.19,2.56,-0.37,-0.85,0.33,0.37,0.00,0.51,2
-0.21,0.99,-0.18,3.11,-0.49,-0.24,0.28,0.34,0.00,0.50,2
-0.21,1.00,-0.18,2.62,0.67,0.24,0.32,0.37,0.00,0.53,2
-0.21,1.00,-0.18,2.93,0.24,-0.12,0.32,0.37,0.00,0.53,2
-0.22,0.99,-0.19,2.93,-0.06,-0.37,0.32,0.37,0.00,0.54,2
-0.20,1.00,-0.17,3.36,-3.11,-2.20,0.32,0.37,0.00,0.54,2
-0.21,1.00,-0.17,2.87,0.98,0.06,0.32,0.36,0.00,0.53,2
-0.21,0.99,-0.17,3.11,-0.12,-0.18,0.33,0.37,0.00,0.54,2
-0.21,1.00,-0.17,2.69,0.43,-0.61,0.32,0.37,0.00,0.53,2
-0.21,0.99,-0.17,3.11,-0.79,-0.85,0.32,0.37,0.00,0.50,2
-0.21,1.00,-0.17,3.48,0.73,-1.22,0.31,0.37,0.00,0.56,2
-0.20,1.01,-0.14,7.57,4.70,-8.79,0.21,0.29,0.00,0.58,2
0.07,1.02,-0.19,1.10,-31.25,3.36,0.10,0.08,0.00,0.00,2
-0.09,0.94,-0.55,1.77,19.10,17.52,0.06,0.00,0.00,0.00,2
-0.13,0.93,-0.56,4.33,-2.44,2.44,0.08,0.00,0.00,0.00,2
-0.24,1.00,-0.46,11.90,-3.05,8.61,0.11,0.00,0.00,0.00,2
-0.26,0.96,-0.39,10.25,-10.80,-7.14,0.00,0.00,0.00,0.00,2
-0.10,0.98,-0.37,4.33,0.79,-1.22,0.00,0.00,0.00,0.00,2
-0.07,1.00,-0.34,-0.18,8.00,-9.83,0.00,0.00,0.00,0.00,2
-0.10,1.03,-0.31,0.73,-0.43,-4.94,0.00,0.00,0.00,0.00,2
-0.04,1.08,-0.32,-3.66,9.40,-13.12,0.00,0.00,0.00,0.00,2
-0.06,1.02,-0.39,-4.39,-3.60,9.89,0.00,0.00,0.00,0.00,2
-0.18,0.97,-0.44,7.39,-3.42,-2.56,0.00,0.00,0.00,0.00,2
-0.20,1.01,-0.42,11.78,-38.15,-2.81,0.00,0.00,0.00,0.00,2
-0.10,1.00,-0.39,-1.04,2.75,-6.71,0.00,0.00,0.00,0.00,2
-0.11,0.99,-0.38,0.67,5.55,-1.16,0.00,0.00,0.00,0.00,2
-0.09,1.00,-0.39,3.23,-0.37,-0.85,0.00,0.00,0.00,0.00,2
-0.09,0.99,-0.40,3.60,1.22,-0.79,0.00,0.00,0.00,0.00,2
-0.09,1.00,-0.39,2.99,-0.12,-0.43,0.00,0.00,0.00,0.00,2
-0.09,1.00,-0.40,3.17,0.06,0.12,0.00,0.00,0.00,0.00,2
-0.09,1.00,-0.41,1.46,1.28,-0.85,0.00,0.00,0.00,0.00,2
-0.10,0.98,-0.42,5.92,0.24,1.04,0.00,0.00,0.00,0.00,2
-0.10,0.99,-0.46,2.32,0.73,2.26,0.00,0.00,0.00,0.00,2
-0.10,1.00,-0.41,5.13,1.16,-2.56,0.00,0.00,0.00,0.00,2
-0.10,0.99,-0.40,3.05,-0.31,0.85,0.00,0.00,0.00,0.00,2
-0.10,1.00,-0.40,2.14,-0.61,-0.12,0.00,0.00,0.00,0.00,2
-0.08,1.00,-0.40,2.26,1.16,-0.24,0.00,0.00,0.00,0.00,2
-0.10,0.98,-0.39,2.20,3.72,4.33,0.00,0.00,0.00,0.00,2
-0.13,0.99,-0.49,2.14,1.04,-1.34,0.00,0.00,0.00,0.00,2
-0.12,0.98,-0.42,8.97,-1.28,-3.66,0.00,0.00,0.00,0.00,2
-0.08,1.00,-0.39,2.26,1.77,-0.67,0.00,0.00,0.00,0.00,2
-0.11,1.00,-0.39,4.88,-1.16,0.06,0.00,0.00,0.00,0.00,2
-0.13,1.00,-0.39,5.62,-0.12,2.01,0.00,0.00,0.00,0.00,2
-0.12,1.02,-0.41,2.75,0.92,0.98,0.00,0.00,0.00,0.00,2
-0.10,1.00,-0.41,4.58,1.77,3.17,0.00,0.00,0.00,0.00,2
-0.12,1.00,-0.41,0.24,0.73,-4.21,0.00,0.00,0.00,0.00,2
-0.10,0.99,-0.40,2.81,-0.37,-0.24,0.00,0.00,0.00,0.00,2
-0.10,1.00,-0.40,2.69,1.16,-1.04,0.00,0.00,0.00,0.00,2
-0.11,0.99,-0.42,4.03,0.49,-1.40,0.00,0.00,0.00,0.00,2
-0.13,0.99,-0.40,2.20,-0.31,-1.71,0.00,0.00,0.00,0.00,2
-0.11,0.99,-0.40,3.30,0.12,-0.55,0.00,0.00,0.00,0.00,2
-0.10,1.00,-0.40,3.17,-0.12,1.10,0.00,0.00,0.00,0.00,2
-0.11,1.00,-0.41,3.54,-0.67,-0.06,0.00,0.00,0.00,0.00,2
-0.11,1.00,-0.40,3.85,0.24,-0.31,0.00,0.00,0.00,0.00,2
-0.09,0.99,-0.40,2.44,0.12,-0.55,0.00,0.00,0.00,0.00,2
-0.10,1.00,-0.41,2.69,1.34,-0.61,0.00,0.00,0.00,0.00,2
-0.11,1.00,-0.40,2.32,0.37,-1.04,0.00,0.00,0.00,0.00,2
-0.11,1.00,-0.40,2.62,0.92,-0.61,0.00,0.00,0.00,0.00,2
-0.10,1.00,-0.40,2.87,0.49,-1.10,0.00,0.00,0.00,0.00,2
-0.10,0.99,-0.40,2.81,-0.55,-0.73,0.00,0.00,0.00,0.00,2
-0.11,0.99,-0.40,2.87,0.12,-0.61,0.00,0.00,0.00,0.00,2
-0.10,0.99,-0.40,2.75,-1.40,-0.06,0.00,0.00,0.00,0.00,2
-0.11,1.00,-0.40,3.05,0.31,-0.61,0.00,0.00,0.00,0.00,2
-0.10,0.99,-0.39,1.16,12.15,2.69,0.00,0.00,0.00,0.00,2
-0.16,0.99,-0.41,2.81,0.92,0.79,0.00,0.00,0.00,0.00,2
-0.12,0.99,-0.40,3.05,0.55,-0.61,0.00,0.00,0.00,0.00,2
-0.12,0.99,-0.40,2.99,-0.31,-0.24,0.00,0.00,0.00,0.00,2
-0.12,0.99,-0.41,2.87,-0.24,0.12,0.00,0.00,0.00,0.00,2
-0.12,0.99,-0.41,2.93,0.12,-0.24,0.00,0.00,0.00,0.00,2
-0.12,0.99,-0.41,2.93,0.06,-0.49,0.00,0.00,0.00,0.00,2
-0.11,0.99,-0.41,2.20,-1.83,-1.83,0.00,0.00,0.00,0.00,2
-0.12,0.99,-0.40,3.85,0.00,0.31,0.00,0.00,0.00,0.00,2
-0.12,1.00,-0.41,2.69,0.12,0.12,0.00,0.00,0.00,0.00,2
-0.12,1.00,-0.40,2.99,0.18,-0.31,0.00,0.00,0.00,0.00,2
-0.12,0.99,-0.40,2.99,0.24,-0.49,0.00,0.00,0.00,0.00,2
-0.12,0.99,-0.40,2.99,-0.06,-0.67,0.00,0.00,0.00,0.00,2
-0.12,0.99,-0.40,2.87,0.18,-0.85,0.00,0.00,0.00,0.00,2
-0.13,0.99,-0.40,2.99,-0.37,-0.79,0.00,0.00,0.00,0.00,2
-0.12,0.99,-0.40,2.99,-0.06,-0.24,0.00,0.00,0.00,0.00,2
-0.12,0.99,-0.40,2.87,-0.06,-0.49,0.00,0.00,0.00,0.00,2
-0.12,1.00,-0.40,2.81,-0.06,-0.67,0.00,0.00,0.00,0.00,2
-0.12,1.00,-0.40,2.87,-0.06,-0.43,0.00,0.00,0.00,0.00,2
-0.12,0.99,-0.40,2.69,0.31,-0.92,0.00,0.00,0.00,0.00,2
-0.12,0.99,-0.40,2.93,0.12,-0.24,0.00,0.00,0.00,0.00,2
-0.12,0.99,-0.40,3.17,-0.06,-0.24,0.00,0.00,0.00,0.00,2
-0.12,0.99,-0.39,0.06,0.55,-1.59,0.00,0.00,0.00,0.00,2
-0.12,1.00,-0.40,3.60,-0.06,-1.22,0.00,0.00,0.00,0.00,2
-0.12,0.99,-0.41,1.77,1.40,-0.61,0.00,0.00,0.00,0.00,2
-0.13,0.98,-0.45,-5.98,3.48,-1.10,0.00,0.00,0.00,0.00,2
-0.10,1.22,-0.36,1.46,-26.18,2.69,0.00,0.00,0.00,0.00,2
-0.20,0.98,-0.38,3.17,0.98,-1.53,0.00,0.00,0.00,0.00,2
-0.16,0.92,-0.39,2.32,-1.34,8.36,0.00,0.00,0.00,0.00,2
-0.13,0.99,-0.40,4.46,-6.84,-0.61,0.00,0.00,0.00,0.00,2
-0.12,0.99,-0.40,2.75,-0.55,-0.55,0.00,0.00,0.00,0.00,2
-0.12,1.00,-0.40,2.50,0.31,-0.55,0.00,0.00,0.00,0.00,2
-0.12,0.99,-0.40,2.75,0.31,-1.95,0.00,0.00,0.00,0.00,2
-0.12,0.99,-0.39,3.42,-0.73,0.06,0.00,0.00,0.00,0.00,2
-0.12,1.00,-0.40,2.26,0.67,-0.73,0.00,0.00,0.00,0.00,2
-0.12,0.99,-0.40,2.81,-0.24,-0.31,0.00,0.00,0.00,0.00,2
-0.11,1.00,-0.40,3.42,-0.85,1.53,0.00,0.00,0.00,0.00,2
-0.15,0.99,-0.40,2.81,1.83,-0.49,0.00,0.00,0.00,0.00,2
-0.13,0.99,-0.39,2.93,-0.73,-0.67,0.00,0.00,0.00,0.00,2
-0.13,0.99,-0.40,2.26,0.12,-1.04,0.00,0.00,0.00,0.00,2
-0.13,0.99,-0.40,3.23,0.18,-0.18,0.00,0.00,0.00,0.00,2
-0.13,0.99,-0.40,3.23,0.49,-0.06,0.00,0.00,0.00,0.00,2
-0.13,0.99,-0.40,2.75,0.43,-0.55,0.00,0.00,0.00,0.00,2
-0.14,1.00,-0.40,2.62,0.24,-0.92,0.00,0.00,0.00,0.00,2
-0.12,1.00,-0.40,3.30,0.12,0.85,0.00,0.00,0.00,0.00,2
-0.13,1.00,-0.40,3.36,0.06,-0.31,0.00,0.00,0.00,0.00,2
-0.14,0.99,-0.39,3.78,-0.55,0.49,0.00,0.00,0.00,0.00,2
-0.13,0.99,-0.39,2.69,0.12,-1.34,0.00,0.00,0.00,0.00,2
-0.13,0.99,-0.40,3.72,-0.31,1.83,0.00,0.00,0.00,0.00,2
-0.13,1.00,-0.40,2.50,-0.43,-0.55,0.00,0.00,0.00,0.00,2
-0.16,0.99,-0.40,1.28,-0.12,4.94,0.00,0.00,0.00,0.00,2
-0.05,0.97,-0.39,-20.51,13.61,-11.05,0.00,0.00,0.00,0.07,2
-0.13,1.01,-0.40,54.75,2.08,-14.65,0.00,0.00,0.00,0.16,2
-0.14,1.00,-0.13,-3.54,-6.16,18.98,0.07,0.16,0.00,0.46,2
-0.25,1.03,-0.16,-4.64,-10.50,-11.41,0.42,0.39,0.00,0.37,2
0.00,0.98,-0.22,2.50,-11.29,-8.67,0.00,0.06,0.00,0.32,2
-0.07,1.03,-0.23,-4.03,-206.48,2.14,0.00,0.00,0.00,0.00,2
-0.34,1.04,-0.06,-3.30,-49.99,24.48,0.09,0.07,0.00,0.59,2
-0.18,0.97,-0.25,-20.57,-20.94,5.68,0.50,0.44,0.08,0.00,2
-0.26,0.66,-0.64,76.54,12.33,5.74,0.00,0.00,0.00,0.00,2
0.38,1.22,-0.33,-41.75,27.53,49.74,0.00,0.00,0.00,0.42,2
-0.16,0.99,-0.29,-29.24,1.34,2.87,0.54,0.55,0.00,0.00,2
-0.20,0.94,-0.58,146.73,88.93,-77.76,0.00,0.00,0.00,0.00,2
-0.54,1.13,-0.05,-34.79,-8.67,21.73,0.06,0.05,0.00,0.56,2
-0.26,1.02,-0.37,-49.93,-18.92,1.46,0.83,0.53,0.14,0.00,2
-0.27,1.22,-0.45,154.42,234.62,-48.77,0.00,0.00,0.00,0.00,2
-0.30,0.96,-0.10,-14.95,-14.95,19.23,0.22,0.21,0.00,0.37,2
-0.26,0.98,-0.31,-29.79,-15.26,-2.75,0.75,0.62,0.12,0.00,2
-0.53,0.99,-0.70,190.06,174.56,-51.64,0.00,0.00,0.00,0.00,2
-0.29,0.97,-0.15,-6.29,-8.61,10.07,0.34,0.36,0.00,0.42,2
-0.27,0.98,-0.21,2.62,0.18,1.04,0.45,0.44,0.05,0.30,2
-0.27,0.98,-0.22,1.53,0.49,-0.43,0.41,0.42,0.05,0.37,2
-0.12,1.08,-0.27,11.96,36.38,-37.35,0.05,0.41,0.00,0.32,2
0.26,0.93,-0.56,87.16,-81.05,-28.14,0.00,0.00,0.00,0.00,2
-0.02,1.13,-0.24,-28.02,51.94,-9.03,0.50,0.51,0.00,0.00,2
0.18,0.88,-0.53,81.18,-64.94,-36.56,0.00,0.00,0.00,0.00,2
-0.31,1.05,-0.42,-36.44,-20.32,-0.18,0.47,0.00,0.00,0.00,2
-0.13,1.06,-0.48,139.71,38.02,-44.86,0.00,0.00,0.00,0.00,2
-0.13,1.00,-0.10,-4.46,13.67,-4.15,0.00,0.05,0.00,0.42,2
0.04,1.07,-0.15,11.05,-6.65,-10.56,0.00,0.09,0.00,0.47,2
-0.24,0.95,-0.36,-6.04,-151.25,52.55,0.13,0.04,0.00,0.00,2
0.08,0.91,-0.53,-8.54,-23.32,-47.91,0.00,0.00,0.00,0.29,2
0.15,0.94,-0.48,2.99,-1.53,6.41,0.06,0.00,0.00,0.00,2
0.17,1.01,-0.48,4.09,4.03,-5.80,0.14,0.00,0.00,0.00,2
0.18,0.97,-0.47,7.14,-14.40,5.74,0.21,0.00,0.00,0.00,2
0.19,0.94,-0.45,0.24,-22.16,13.98,0.17,0.00,0.00,0.00,2
0.20,0.95,-0.49,4.15,0.49,9.83,0.22,0.00,0.00,0.00,2
0.13,0.98,-0.43,6.65,-8.91,0.73,0.20,0.07,0.00,0.00,2
0.09,0.99,-0.40,3.23,-3.48,-5.13,0.19,0.12,0.00,0.00,2
0.09,0.91,-0.37,4.70,5.55,17.64,0.09,0.05,0.00,0.00,2
0.08,0.94,-0.33,3.97,-60.91,19.96,0.00,0.00,0.00,0.00,2
-0.04,1.03,-0.63,-8.91,-4.76,8.30,0.00,0.00,0.00,0.62,2
0.22,0.94,-0.55,139.22,-40.95,-31.68,0.00,0.00,0.00,0.00,2
-0.11,1.00,-0.24,-8.91,-36.50,8.91,0.25,0.18,0.00,0.52,2
0.07,0.97,-0.65,167.11,0.00,-30.15,0.00,0.00,0.00,0.00,2
-0.24,0.96,-0.22,-30.52,-31.80,-8.12,0.15,0.00,0.00,0.63,2
-0.55,0.83,-0.51,13.06,-26.49,64.58,0.00,0.00,0.00,0.00,2
0.03,0.98,-0.03,3.78,-9.22,23.74,0.00,0.00,0.00,0.00,2
-0.17,1.00,-0.17,-0.06,-21.79,-9.40,0.23,0.10,0.00,0.55,2
-0.02,1.08,-0.10,35.89,-125.67,-16.42,0.00,0.00,0.00,0.00,2
-0.21,0.99,-0.07,-7.69,3.23,0.49,0.00,0.07,0.00,0.50,2
-0.17,1.04,-0.41,-42.11,23.01,-14.65,0.80,0.24,0.25,0.00,2
-0.04,1.11,-0.54,144.53,100.22,-82.15,0.00,0.00,0.00,0.00,2
-0.11,0.97,-0.15,-4.70,-10.07,11.78,0.10,0.10,0.00,0.54,2
-0.17,1.00,-0.20,0.92,0.18,-2.01,0.08,0.10,0.00,0.50,2
-0.14,1.01,-0.23,0.92,2.62,0.49,0.10,0.13,0.00,0.39,2
-0.25,1.00,-0.20,2.87,1.10,5.62,0.31,0.23,0.00,0.45,2
-0.11,0.97,-0.41,-39.00,-20.81,-5.37,0.49,0.24,0.00,0.00,2
-0.21,1.09,-0.47,134.40,52.55,-30.76,0.00,0.00,0.00,0.00,2
-0.25,1.10,-0.10,-18.68,-32.96,11.72,0.22,0.00,0.00,0.57,2
-0.27,1.08,-0.32,-71.53,-11.11,-4.88,0.85,0.42,0.08,0.00,2
-0.09,0.86,-0.65,67.75,113.04,-2.81,0.00,0.00,0.00,0.00,2
-0.16,1.01,-0.17,-19.35,15.01,10.38,0.37,0.21,0.08,0.29,2
-0.23,0.98,-0.97,-58.35,-63.23,3.23,0.00,0.00,0.00,0.00,2
-0.06,1.06,-0.20,-20.63,10.38,15.14,0.16,0.09,0.00,0.56,2
-0.30,1.03,-0.58,-81.24,6.59,-9.77,0.00,0.00,0.00,0.00,2
-0.24,0.90,-0.36,46.33,-63.96,17.58,0.11,0.00,0.00,0.31,2
-0.17,0.98,-0.22,-4.33,10.62,-17.15,0.39,0.41,0.00,0.18,2
-0.03,1.09,-0.54,-1.22,237.55,-6.77,0.00,0.00,0.00,0.00,2
-0.32,1.01,-0.06,-22.03,-4.46,15.08,0.00,0.00,0.00,0.62,2
0.01,1.08,-0.43,-105.90,-41.20,24.72,0.22,0.04,0.00,0.00,2
0.70,1.10,-0.16,-24.48,5.62,41.26,0.00,0.00,0.00,0.19,2
-0.23,1.01,-0.37,-50.72,-9.28,-1.59,0.42,0.50,0.00,0.00,2
0.08,0.85,-0.43,-13.73,-83.80,27.77,0.00,0.00,0.00,0.00,2
-0.24,0.93,-0.29,-30.33,-20.14,9.70,0.75,0.37,0.26,0.00,2
0.14,0.78,-0.76,166.56,15.56,-41.87,0.00,0.00,0.00,0.00,2
-0.23,0.97,-0.15,-8.85,-0.43,7.45,0.25,0.19,0.00,0.53,2
-0.21,0.98,-0.36,-0.98,-4.70,-4.76,0.60,0.42,0.00,0.00,2
-0.18,1.00,-0.31,4.76,0.31,-1.16,0.49,0.37,0.00,0.00,2
-0.18,1.00,-0.31,3.42,-2.69,-0.37,0.52,0.36,0.09,0.00,2
-0.14,0.99,-0.32,3.54,-6.10,-2.99,0.53,0.33,0.08,0.00,2
-0.03,0.93,-0.48,32.35,-71.35,-20.20,0.00,0.00,0.00,0.00,2
-0.35,0.95,-0.44,29.11,31.43,-3.30,0.00,0.00,0.00,0.58,2
0.06,0.98,-0.25,23.50,-27.65,19.78,0.00,0.00,0.00,0.00,2
0.15,0.86,-0.03,20.08,22.46,-5.37,0.00,0.00,0.00,0.00,2
-0.03,1.03,-0.15,-10.07,-1.53,-1.95,0.00,0.00,0.00,0.08,2
-0.15,0.99,-0.11,4.76,3.30,0.85,0.00,0.00,0.00,0.17,2
-0.13,1.00,-0.11,2.38,1.34,-1.04,0.00,0.00,0.00,0.17,2
-0.15,0.99,-0.09,2.75,0.37,-1.04,0.00,0.00,0.00,0.14,2
-0.16,0.99,-0.09,3.23,0.67,-0.12,0.00,0.00,0.00,0.15,2
-0.15,0.99,-0.10,2.99,0.06,-0.12,0.00,0.00,0.00,0.16,2
-0.15,1.00,-0.10,2.81,0.06,-0.79,0.00,0.00,0.00,0.16,2
-0.14,1.00,-0.11,2.93,-0.73,0.06,0.00,0.00,0.00,0.16,2
-0.16,0.99,-0.10,2.32,0.24,-1.28,0.00,0.00,0.00,0.16,2
-0.15,0.99,-0.10,3.17,0.06,-0.18,0.00,0.00,0.00,0.16,2
-0.16,1.00,-0.10,2.38,-1.22,-1.40,0.00,0.00,0.00,0.17,2
-0.15,0.99,-0.09,3.05,-1.10,-0.37,0.00,0.00,0.00,0.16,2
-0.16,0.99,-0.09,2.38,0.31,-0.73,0.00,0.00,0.00,0.17,2
-0.16,0.99,-0.10,3.05,0.18,0.31,0.00,0.00,0.00,0.17,2
-0.16,0.99,-0.10,2.50,0.31,-1.10,0.00,0.00,0.00,0.18,2
-0.16,0.99,-0.10,2.99,-0.49,-0.06,0.00,0.00,0.00,0.18,2
-0.16,0.99,-0.10,3.42,-0.24,-0.12,0.00,0.00,0.00,0.17,2
-0.16,0.99,-0.10,2.93,-0.06,0.00,0.00,0.00,0.00,0.18,2
-0.16,0.99,-0.10,3.17,0.24,-0.49,0.00,0.00,0.00,0.18,2
-0.16,0.99,-0.10,2.87,0.24,-0.24,0.00,0.00,0.00,0.20,2
-0.16,0.99,-0.10,3.17,0.24,-0.67,0.00,0.00,0.00,0.20,2
-0.16,0.99,-0.10,3.48,-1.22,0.49,0.00,0.00,0.00,0.20,2
-0.16,0.99,-0.09,3.05,-0.18,-0.18,0.00,0.00,0.00,0.21,2
-0.17,0.99,-0.09,3.17,-0.06,-0.31,0.00,0.00,0.00,0.19,2
-0.17,1.00,-0.10,3.05,0.00,-0.49,0.00,0.00,0.00,0.19,2
-0.16,0.99,-0.10,2.87,0.12,-0.43,0.00,0.00,0.00,0.19,2
-0.18,0.99,-0.10,3.48,0.92,0.61,0.00,0.00,0.00,0.20,2
-0.17,0.98,-0.09,2.87,-0.37,-0.37,0.00,0.00,0.00,0.17,2
-0.17,0.99,-0.09,3.23,0.24,-0.43,0.00,0.00,0.00,0.20,2
-0.19,0.99,-0.08,4.33,2.08,-0.49,0.00,0.00,0.00,0.17,2
-0.17,0.98,-0.07,0.98,-1.95,0.92,0.00,0.00,0.00,0.11,2
-0.11,1.00,-0.10,1.28,0.12,-1.53,0.00,0.00,0.00,0.11,2
-0.12,0.96,-0.07,11.84,-31.19,8.18,0.00,0.00,0.00,0.00,2
-0.17,0.98,-0.09,0.55,2.38,0.43,0.00,0.00,0.00,0.00,2
-0.17,0.99,-0.10,0.49,5.92,-7.26,0.00,0.00,0.00,0.00,2
-0.13,0.97,-0.01,10.01,2.20,-5.00,0.00,0.00,0.00,0.00,2
-0.07,0.99,-0.04,1.16,0.00,0.18,0.00,0.00,0.00,0.00,2
-0.08,0.97,-0.02,2.99,-2.62,6.41,0.00,0.00,0.00,0.00,2
-0.04,1.02,-0.50,-28.63,-9.70,-4.76,0.00,0.00,0.00,0.55,2
-0.10,0.97,-0.20,26.86,-57.31,-3.85,0.29,0.26,0.00,0.39,2
-0.37,0.99,-0.40,120.54,8.67,-7.69,0.00,0.00,0.00,0.00,2
-0.18,1.02,-0.14,-18.07,-3.23,8.18,0.48,0.29,0.11,0.35,2
-0.39,0.90,-0.79,-10.01,8.30,-6.47,0.00,0.00,0.00,0.00,2
-0.02,1.07,-0.14,-33.94,26.86,4.46,0.12,0.09,0.00,0.60,2
-0.06,1.03,-0.37,-107.36,-51.03,2.26,0.26,0.00,0.00,0.00,2
0.22,1.21,-0.20,-8.67,22.83,23.38,0.06,0.12,0.00,0.15,2
-0.28,0.98,-0.22,1.77,-0.31,3.54,0.52,0.47,0.09,0.20,2
-0.33,0.98,-0.22,5.25,9.89,1.53,0.63,0.17,0.30,0.15,2
-0.25,0.98,-0.18,5.98,20.20,-14.47,0.45,0.30,0.15,0.36,2
0.02,1.13,-0.34,97.78,51.39,-20.02,0.00,0.00,0.00,0.00,2
-0.19,0.89,-0.18,-16.48,-3.30,10.99,0.57,0.15,0.28,0.00,2
-0.17,1.01,-0.57,165.77,12.57,-29.97,0.00,0.00,0.00,0.00,2
-0.18,0.93,-0.04,-22.95,-9.46,-4.46,0.25,0.18,0.00,0.53,2
-0.05,1.34,-0.48,-99.18,-78.98,22.58,0.00,0.00,0.00,0.00,2
