accelX,accelY,accelZ,gyroX,gyroY,gyroZ,fsr1,fsr2,fsr3,fsr4,label
-0.29,-0.13,-1.19,3.23,-0.12,-0.49,0.27,0.00,0.00,0.00,2
-0.30,-0.12,-1.21,3.11,0.31,-0.49,0.25,0.00,0.00,0.00,2
-0.29,-0.13,-1.20,2.93,0.06,-0.37,0.26,0.00,0.00,0.41,2
-0.29,-0.13,-1.20,2.93,0.24,-0.49,0.25,0.00,0.00,0.00,2
-0.29,-0.13,-1.19,3.05,0.37,-0.43,0.24,0.00,0.00,0.00,2
-0.30,-0.12,-1.19,4.09,0.31,-1.04,0.25,0.00,0.00,0.00,2
-0.30,-0.12,-1.19,3.36,0.18,-0.73,0.25,0.00,0.00,0.00,2
-0.30,-0.13,-1.20,3.17,0.18,-0.49,0.24,0.00,0.00,0.00,2
-0.30,-0.13,-1.20,2.81,0.24,-0.31,0.24,0.00,0.00,0.00,2
-0.30,-0.13,-1.21,2.62,-0.18,-0.24,0.24,0.00,0.00,0.00,2
-0.29,-0.13,-1.20,3.23,0.24,-0.49,0.24,0.00,0.00,0.00,2
-0.30,-0.13,-1.20,3.05,0.12,-0.43,0.24,0.00,0.00,0.00,2
-0.30,-0.14,-1.23,4.58,-0.92,-0.31,0.24,0.00,0.00,0.00,2
-0.30,-0.13,-1.19,2.38,0.31,-0.37,0.26,0.00,0.00,0.66,2
-0.29,-0.13,-1.20,3.42,0.12,-0.79,0.25,0.00,0.00,0.17,2
-0.30,-0.13,-1.20,2.62,-0.12,-0.37,0.24,0.00,0.00,0.00,2
-0.30,-0.13,-1.20,2.81,0.06,-0.31,0.24,0.00,0.00,0.00,2
-0.31,-0.13,-1.21,3.91,0.49,-1.04,0.23,0.00,0.00,0.00,2
-0.30,-0.12,-1.19,5.25,0.49,-1.71,0.23,0.00,0.00,0.00,2
-0.30,-0.13,-1.19,2.38,0.49,-0.06,0.23,0.00,0.00,0.00,2
-0.29,-0.13,-1.20,2.08,-1.59,0.24,0.00,0.00,0.00,0.00,2
-0.32,-0.13,-1.21,4.52,1.22,-1.16,0.23,0.00,0.00,0.00,2
-0.31,-0.14,-1.18,2.20,0.67,-0.37,0.23,0.00,0.00,0.00,2
-0.31,-0.12,-1.20,1.46,0.98,-0.18,0.23,0.00,0.00,0.00,2
-0.29,-0.12,-1.20,2.81,-0.12,-0.85,0.23,0.00,0.00,0.00,2
-0.33,-0.14,-1.23,7.26,2.26,-1.89,0.00,0.00,0.00,0.00,2
-0.32,-0.09,-1.15,2.99,0.31,-0.73,0.22,0.00,0.00,0.00,2
-0.34,-0.10,-1.19,2.75,0.06,-0.37,0.23,0.00,0.00,0.00,2
-0.34,-0.10,-1.19,2.87,0.18,-0.18,0.23,0.00,0.00,0.00,2
-0.34,-0.07,-1.18,5.00,1.77,-1.83,0.20,0.00,0.00,0.00,2
-0.33,-0.09,-1.16,2.93,3.17,-0.55,0.22,0.00,0.00,0.00,2
-0.34,-0.10,-1.19,3.17,0.18,-0.49,0.22,0.00,0.00,0.00,2
-0.34,-0.10,-1.19,3.11,0.24,-0.61,0.22,0.00,0.00,0.00,2
-0.34,-0.10,-1.18,2.81,0.12,-0.37,0.22,0.00,0.00,0.00,2
-0.34,-0.10,-1.18,2.69,0.24,-0.24,0.23,0.00,0.00,0.00,2
-0.34,-0.10,-1.19,2.87,-0.12,-0.61,0.22,0.00,0.00,0.00,2
-0.34,-0.10,-1.18,2.50,-0.12,-0.67,0.22,0.00,0.00,0.00,2
-0.34,-0.11,-1.19,2.08,0.00,-0.43,0.22,0.00,0.00,0.00,2
-0.33,-0.11,-1.19,2.75,-0.06,-0.43,0.22,0.00,0.00,0.00,2
-0.34,-0.11,-1.19,3.11,-0.18,-0.37,0.22,0.00,0.00,0.00,2
-0.33,-0.11,-1.18,2.69,0.24,-0.49,0.22,0.00,0.00,0.00,2
-0.33,-0.11,-1.17,2.93,0.12,-0.24,0.23,0.00,0.00,0.00,2
-0.34,-0.11,-1.18,2.69,0.06,-0.37,0.22,0.00,0.00,0.00,2
-0.34,-0.10,-1.19,2.99,0.12,-0.61,0.24,0.00,0.00,0.00,2
-0.33,-0.10,-1.18,2.87,-0.06,-0.55,0.23,0.00,0.00,0.00,2
-0.34,-0.11,-1.19,3.11,0.18,-0.24,0.22,0.00,0.00,0.00,2
-0.44,-0.15,-1.19,-8.24,-7.26,33.33,0.22,0.00,0.00,0.00,2
-0.36,-0.10,-1.18,6.29,0.37,-2.26,0.24,0.00,0.00,0.00,2
-0.35,-0.11,-1.18,4.70,2.75,-1.40,0.22,0.00,0.00,0.00,2
-0.42,-0.20,-1.19,19.84,5.19,-0.98,0.22,0.00,0.00,0.00,2
-0.42,-0.01,-1.12,9.09,2.32,-2.08,0.22,0.00,0.00,0.00,2
-0.37,-0.07,-1.20,1.89,-2.26,-0.92,0.22,0.00,0.00,0.00,2
-0.35,-0.08,-1.18,1.16,-1.40,0.31,0.23,0.00,0.00,0.00,2
-0.36,-0.06,-1.19,5.37,9.09,-8.24,0.23,0.00,0.00,0.00,2
-0.36,-0.14,-1.16,3.72,-1.28,-1.16,0.22,0.00,0.00,0.00,2
-0.41,-0.22,-1.14,6.96,-1.59,-0.18,0.22,0.00,0.00,0.00,2
-0.36,-0.15,-1.11,-2.69,-0.12,-13.67,0.22,0.00,0.00,0.00,2
-0.41,-0.26,-1.12,15.56,-1.95,-5.55,0.22,0.00,0.00,0.00,2
-0.36,-0.15,-1.15,15.26,4.09,-7.93,0.22,0.00,0.00,0.00,2
-0.40,-0.05,-1.18,-2.99,-1.89,2.38,0.22,0.00,0.00,0.00,2
-0.38,-0.05,-1.17,-2.93,0.67,3.78,0.22,0.00,0.00,0.00,2
-0.39,-0.06,-1.18,5.43,-0.24,-1.53,0.22,0.00,0.00,0.00,2
-0.39,-0.06,-1.17,3.36,0.06,-0.79,0.22,0.00,0.00,0.00,2
-0.38,-0.06,-1.18,2.69,0.06,-0.61,0.22,0.00,0.00,0.00,2
-0.38,-0.07,-1.18,-17.94,2.93,7.81,0.22,0.00,0.00,0.00,2
-0.40,-0.07,-1.19,9.28,-0.61,-3.48,0.21,0.00,0.00,0.00,2
-0.39,-0.07,-1.26,-2.75,-2.99,2.62,0.22,0.00,0.00,0.00,2
-0.37,-0.06,-1.14,2.01,0.67,0.12,0.21,0.00,0.00,0.00,2
-0.38,-0.06,-1.17,3.30,0.12,-0.67,0.20,0.00,0.00,0.00,2
-0.39,-0.07,-1.18,1.65,-0.67,0.12,0.22,0.00,0.00,0.00,2
-0.38,-0.06,-1.18,3.30,-0.06,-0.55,0.22,0.00,0.39,0.00,2
-0.39,-0.05,-1.17,2.81,0.00,-0.55,0.21,0.00,0.00,0.00,2
-0.38,-0.06,-1.17,3.05,0.18,-0.49,0.21,0.00,0.00,0.00,2
-0.39,-0.05,-1.17,3.30,0.18,-0.73,0.21,0.00,0.00,0.00,2
-0.40,-0.05,-1.19,2.01,-1.10,0.00,0.21,0.00,0.00,0.00,2
-0.40,-0.05,-1.20,2.93,-0.55,-0.55,0.21,0.00,0.00,0.00,2
-0.38,-0.05,-1.18,3.48,0.00,-0.61,0.23,0.00,0.00,0.50,2
-0.38,-0.06,-1.18,4.15,0.12,-0.79,0.21,0.00,0.00,0.00,2
-0.38,-0.06,-1.17,2.99,0.00,-0.73,0.23,0.00,0.00,0.48,2
-0.38,-0.06,-1.17,2.87,0.06,-0.55,0.23,0.00,0.00,0.36,2
-0.39,-0.06,-1.18,2.87,0.00,-0.43,0.22,0.00,0.00,0.00,2
-0.38,-0.05,-1.17,3.11,0.55,-0.85,0.22,0.00,0.00,0.00,2
-0.38,-0.05,-1.18,3.17,0.12,-0.67,0.21,0.00,0.00,0.00,2
-0.39,-0.06,-1.18,3.05,0.00,-0.49,0.22,0.00,0.00,0.00,2
-0.38,-0.06,-1.18,2.99,-0.18,-0.61,0.21,0.00,0.00,0.00,2
-0.38,-0.06,-1.17,3.30,0.06,-0.55,0.22,0.00,0.00,0.00,2
-0.39,-0.05,-1.18,2.99,-0.06,-0.67,0.21,0.00,0.00,0.00,2
-0.44,-0.06,-1.25,-5.37,-2.93,-0.61,0.21,0.00,0.00,0.00,2
-0.16,0.05,-1.15,0.92,-4.94,8.73,0.22,0.00,0.00,0.00,2
-0.30,0.06,-1.22,-4.39,9.70,-19.10,0.21,0.00,0.00,0.00,2
-0.43,-0.04,-1.16,26.43,-3.91,-10.56,0.21,0.00,0.00,0.00,2
-0.43,-0.00,-1.15,3.11,-0.31,-0.37,0.21,0.00,0.00,0.00,2
-0.42,0.00,-1.16,3.48,-0.55,-0.49,0.21,0.00,0.00,0.00,2
-0.41,0.01,-1.16,2.75,0.18,-0.67,0.21,0.00,0.00,0.00,2
-0.42,-0.04,-1.15,-15.50,2.14,-8.24,0.21,0.00,0.00,0.00,2
-0.43,-0.04,-1.15,4.46,0.00,-1.28,0.21,0.00,0.00,0.00,2
-0.43,-0.03,-1.15,3.60,-0.18,-0.92,0.21,0.00,0.00,0.00,2
-0.43,-0.03,-1.16,2.81,0.06,-0.49,0.21,0.00,0.00,0.00,2
-0.44,-0.03,-1.16,2.93,0.00,-0.85,0.21,0.00,0.00,0.00,2
-0.43,-0.03,-1.16,2.81,-0.24,-0.31,0.21,0.00,0.00,0.00,2
-0.43,-0.03,-1.15,2.99,0.00,-0.85,0.21,0.00,0.00,0.00,2
-0.43,-0.03,-1.16,2.75,0.06,-0.55,0.21,0.00,0.00,0.00,2
-0.43,-0.03,-1.16,3.36,0.24,-0.55,0.20,0.00,0.00,0.00,2
-0.43,-0.03,-1.15,2.81,-0.18,-0.43,0.20,0.00,0.00,0.00,2
-0.44,-0.03,-1.16,2.08,-0.61,0.00,0.20,0.00,0.00,0.00,2
-0.43,-0.03,-1.16,3.30,0.00,-0.79,0.20,0.00,0.00,0.00,2
-0.43,-0.03,-1.15,2.56,0.24,-0.55,0.20,0.00,0.00,0.00,2
-0.43,-0.03,-1.16,2.93,0.06,-0.55,0.20,0.00,0.00,0.00,2
-0.43,-0.02,-1.16,2.56,0.31,-0.61,0.20,0.00,0.00,0.00,2
-0.43,-0.03,-1.16,2.75,0.00,-0.73,0.20,0.00,0.00,0.00,2
-0.43,-0.03,-1.16,2.87,-0.12,-0.61,0.20,0.00,0.00,0.00,2
-0.44,-0.03,-1.15,2.75,0.00,-0.49,0.21,0.00,0.00,0.00,2
-0.43,-0.03,-1.16,2.69,0.12,-0.43,0.20,0.00,0.00,0.00,2
-0.43,-0.03,-1.15,2.81,0.06,-0.49,0.21,0.00,0.00,0.00,2
-0.43,-0.03,-1.15,3.05,0.31,-0.61,0.20,0.00,0.00,0.00,2
-0.43,-0.03,-1.16,2.87,-0.06,-0.49,0.20,0.00,0.00,0.00,2
-0.42,-0.03,-1.13,-0.61,1.22,1.16,0.20,0.00,0.00,0.00,2
-0.39,-0.09,-1.14,-1.89,3.11,1.95,0.20,0.00,0.00,0.00,2
-0.44,-0.04,-1.16,1.71,-1.53,1.04,0.20,0.00,0.00,0.00,2
-0.44,-0.14,-1.15,5.25,1.22,-2.62,0.20,0.00,0.00,0.00,2
-0.22,-0.16,-1.26,2.87,3.72,34.42,0.18,0.00,0.00,0.00,2
-0.30,-0.18,-1.19,32.23,13.61,24.11,0.21,0.00,0.00,0.00,2
-0.22,0.03,-1.17,26.06,-50.23,-11.29,0.21,0.00,0.00,0.00,2
-0.04,0.11,-1.24,6.23,6.71,-2.38,0.19,0.00,0.00,0.00,2
0.02,0.03,-1.27,2.44,3.91,2.93,0.21,0.00,0.00,0.00,2
0.02,0.02,-1.17,10.56,-1.16,3.78,0.20,0.00,0.00,0.00,2
0.04,0.02,-1.20,-4.76,12.70,-12.21,0.20,0.00,0.00,0.00,2
-0.08,0.04,-1.14,16.78,13.00,24.48,0.21,0.00,0.00,0.00,2
-0.27,0.12,-1.24,2.93,8.79,1.65,0.20,0.00,0.00,0.00,2
-0.43,0.07,-1.23,-23.68,9.83,6.53,0.20,0.00,0.00,0.00,2
-0.35,-0.06,-1.10,2.01,-4.76,-16.54,0.18,0.00,0.00,0.00,2
-0.57,-0.11,-1.10,-16.97,-2.93,1.04,0.00,0.00,0.00,0.00,2
-0.46,-0.08,-1.13,21.12,-20.39,3.23,0.00,0.00,0.00,0.00,2
-0.20,-0.26,-1.18,15.93,20.51,3.30,0.20,0.00,0.00,0.00,2
-0.39,-0.00,-1.20,3.17,-0.73,-0.37,0.20,0.00,0.00,0.00,2
-0.37,-0.01,-1.18,3.05,-0.55,-0.55,0.20,0.00,0.00,0.00,2
-0.38,-0.01,-1.19,2.93,-0.55,-0.55,0.20,0.00,0.00,0.00,2
-0.37,-0.06,-1.20,0.24,-2.20,-0.79,0.20,0.00,0.00,0.00,2
-0.39,0.02,-1.17,1.34,0.79,-0.24,0.19,0.00,0.00,0.00,2
-0.37,-0.01,-1.17,2.75,-0.43,-0.92,0.20,0.00,0.00,0.00,2
-0.39,-0.00,-1.20,2.62,-0.18,-0.49,0.23,0.09,0.00,0.00,2
-0.37,-0.01,-1.18,3.30,0.49,-0.49,0.21,0.11,0.00,0.00,2
-0.37,-0.01,-1.19,2.87,0.49,-0.43,0.20,0.11,0.00,0.00,2
-0.38,-0.01,-1.18,3.11,-0.12,-0.55,0.20,0.08,0.00,0.00,2
-0.38,-0.01,-1.19,3.05,-0.85,-0.49,0.20,0.00,0.00,0.31,2
-0.37,-0.00,-1.18,2.87,0.67,-0.73,0.21,0.00,0.00,0.44,2
-0.37,-0.00,-1.18,3.05,0.12,-0.43,0.20,0.00,0.00,0.00,2
-0.37,-0.00,-1.18,3.17,-0.43,-0.67,0.22,0.00,0.00,0.69,2
-0.38,-0.01,-1.18,3.17,-0.18,-0.55,0.22,0.00,0.00,0.67,2
-0.37,-0.01,-1.18,2.87,0.18,-0.61,0.21,0.07,0.00,0.00,2
-0.37,-0.01,-1.18,3.05,-0.06,-0.55,0.21,0.00,0.00,0.00,2
-0.37,-0.01,-1.18,3.17,0.06,-0.49,0.22,0.00,0.00,0.05,2
-0.37,-0.00,-1.19,2.62,0.37,-0.31,0.18,0.00,0.00,0.00,2
-0.36,-0.01,-1.18,3.36,-0.61,-0.98,0.19,0.00,0.00,0.40,2
-0.37,-0.01,-1.18,2.50,0.12,-0.31,0.21,0.00,0.00,0.32,2
-0.37,-0.00,-1.18,2.81,0.00,-0.61,0.21,0.00,0.00,0.46,2
-0.37,-0.01,-1.18,2.93,-0.55,-0.43,0.21,0.18,0.00,0.00,2
-0.37,-0.01,-1.18,3.11,-0.61,-0.49,0.21,0.10,0.00,0.05,2
-0.38,-0.00,-1.18,2.75,-0.06,-0.49,0.22,0.15,0.00,0.12,2
-0.37,-0.01,-1.18,3.23,-0.18,-0.55,0.20,0.07,0.00,0.40,2
-0.37,-0.01,-1.18,2.81,0.37,-0.73,0.22,0.00,0.00,0.49,2
-0.37,-0.01,-1.18,2.93,-0.18,-0.73,0.23,0.06,0.00,0.28,2
-0.38,-0.00,-1.18,2.69,-0.31,-0.43,0.21,0.10,0.00,0.00,2
-0.38,-0.00,-1.18,2.87,-0.31,-0.49,0.24,0.07,0.00,0.29,2
-0.37,-0.00,-1.18,2.99,-0.18,-0.49,0.21,0.11,0.00,0.27,2
-0.38,-0.00,-1.19,2.62,0.12,-0.31,0.21,0.00,0.00,0.23,2
-0.38,-0.00,-1.18,2.87,0.06,-0.55,0.19,0.00,0.00,0.18,2
-0.37,-0.01,-1.17,3.48,0.06,-0.79,0.19,0.00,0.00,0.00,2
-0.35,-0.01,-1.18,2.93,-0.55,-0.92,0.19,0.00,0.00,0.00,2
-0.38,-0.00,-1.19,3.05,0.37,-0.55,0.21,0.00,0.00,0.32,2
-0.38,0.00,-1.17,2.81,-0.55,-0.49,0.21,0.00,0.00,0.00,2
-0.37,-0.00,-1.18,3.23,-0.12,-0.43,0.20,0.00,0.00,0.00,2
-0.36,-0.01,-1.19,2.50,0.43,-0.18,0.20,0.00,0.00,0.00,2
-0.36,-0.01,-1.18,2.75,0.31,-0.61,0.21,0.00,0.00,0.32,2
-0.39,0.00,-1.19,15.44,0.31,32.17,0.20,0.00,0.00,0.00,2
-0.37,0.02,-1.16,8.24,-1.34,8.24,0.21,0.00,0.00,0.12,2
-0.35,0.02,-1.19,1.28,0.85,0.18,0.21,0.00,0.00,0.11,2
-0.38,0.00,-1.20,2.99,0.73,-0.98,0.21,0.00,0.00,0.00,2
-0.38,0.00,-1.18,3.54,-0.12,-0.61,0.20,0.05,0.00,0.00,2
-0.40,-0.20,-1.13,22.89,0.67,3.91,0.21,0.07,0.00,0.11,2
-0.37,-0.01,-1.17,3.17,-0.37,-0.85,0.20,0.10,0.00,0.00,2
-0.38,-0.01,-1.17,3.17,0.12,-0.67,0.20,0.15,0.00,0.00,2
-0.38,-0.01,-1.19,2.81,0.00,-0.61,0.21,0.17,0.00,0.00,2
-0.38,-0.01,-1.18,3.11,0.24,-0.61,0.21,0.16,0.00,0.00,2
-0.37,-0.01,-1.18,3.11,-1.16,-0.61,0.21,0.00,0.00,0.38,2
-0.38,-0.01,-1.18,2.69,0.18,-0.55,0.21,0.00,0.00,0.00,2
-0.38,-0.01,-1.17,2.81,-0.43,-0.55,0.21,0.00,0.00,0.31,2
-0.38,-0.01,-1.17,2.93,-0.18,-0.67,0.20,0.00,0.00,0.38,2
-0.38,-0.01,-1.17,2.75,-0.18,-0.79,0.20,0.00,0.00,0.00,2
-0.38,-0.01,-1.18,2.99,0.24,-0.49,0.20,0.00,0.00,0.00,2
-0.38,-0.01,-1.18,2.99,0.12,-0.49,0.21,0.00,0.00,0.05,2
-0.37,-0.01,-1.18,3.11,0.00,-0.55,0.20,0.00,0.00,0.00,2
-0.37,0.01,-1.18,3.36,0.37,-0.18,0.20,0.00,0.00,0.00,2
-0.38,-0.01,-1.16,0.24,0.85,0.37,0.20,0.00,0.00,0.00,2
-0.38,-0.03,-1.18,-0.55,-0.73,0.31,0.20,0.00,0.00,0.00,2
-0.34,0.07,-1.20,0.79,0.12,-13.37,0.19,0.00,0.00,0.00,2
-0.36,0.10,-1.22,-0.43,-6.71,-18.68,0.20,0.00,0.00,0.00,2
-0.36,-0.01,-1.15,2.99,0.67,-0.55,0.20,0.00,0.00,0.00,2
-0.39,-0.01,-1.17,2.62,-0.55,-0.49,0.20,0.00,0.00,0.00,2
-0.38,-0.02,-1.18,3.05,-0.79,-0.55,0.20,0.00,0.00,0.00,2
-0.39,-0.01,-1.18,3.05,-0.12,-0.43,0.20,0.00,0.00,0.00,2
-0.37,-0.02,-1.18,4.76,-0.43,-0.55,0.20,0.00,0.00,0.00,2
-0.38,-0.01,-1.18,3.36,-0.49,-0.49,0.20,0.00,0.00,0.00,2
-0.36,0.04,-1.16,3.36,0.61,0.55,0.20,0.00,0.00,0.00,2
-0.38,0.00,-1.18,4.03,-2.56,-0.73,0.20,0.00,0.00,0.00,2
-0.37,-0.00,-1.17,1.28,2.93,0.37,0.21,0.00,0.00,0.00,2
-0.36,0.01,-1.17,2.75,0.61,-0.18,0.20,0.00,0.00,0.00,2
-0.37,-0.00,-1.17,2.81,0.43,-0.55,0.20,0.00,0.00,0.00,2
-0.37,-0.01,-1.20,4.33,-0.85,-0.85,0.20,0.00,0.00,0.00,2
-0.39,-0.01,-1.18,3.17,0.06,-0.49,0.20,0.00,0.00,0.00,2
-0.39,-0.01,-1.18,2.93,0.61,-0.43,0.20,0.00,0.00,0.00,2
-0.39,-0.01,-1.18,3.30,-0.06,0.31,0.20,0.00,0.00,0.00,2
-0.37,0.01,-1.17,2.93,-0.24,0.06,0.21,0.00,0.00,0.00,2
-0.36,0.03,-1.18,10.07,-0.12,9.16,0.22,0.00,0.00,0.00,2
-0.35,0.01,-1.18,4.21,-0.98,-1.28,0.21,0.00,0.00,0.00,2
-0.38,0.00,-1.19,3.11,-0.18,-0.43,0.22,0.00,0.00,0.00,2
-0.37,0.02,-1.19,2.93,-0.06,-0.61,0.23,0.00,0.14,0.00,2
-0.37,0.01,-1.19,5.31,-0.12,0.61,0.21,0.00,0.20,0.00,2
-0.36,0.03,-1.16,1.59,1.59,0.00,0.20,0.00,0.00,0.00,2
-0.35,0.00,-1.19,9.64,-0.18,5.07,0.20,0.00,0.32,0.00,2
-0.36,0.03,-1.19,1.89,0.98,-0.06,0.20,0.00,0.00,0.00,2
-0.36,0.02,-1.19,1.65,2.32,-0.31,0.20,0.00,0.00,0.00,2
-0.37,0.02,-1.19,3.23,-0.61,-0.49,0.20,0.00,0.00,0.00,2
-0.36,0.02,-1.19,2.38,0.85,-0.55,0.20,0.00,0.00,0.00,2
-0.36,0.02,-1.18,3.11,-0.55,-0.85,0.20,0.00,0.40,0.00,2
-0.36,0.01,-1.19,2.99,0.12,-0.43,0.20,0.00,0.59,0.00,2
-0.36,0.02,-1.18,3.05,-0.24,-0.37,0.20,0.00,0.00,0.00,2
-0.36,0.02,-1.17,2.50,0.43,-0.43,0.20,0.00,0.00,0.00,2
-0.36,0.02,-1.18,3.30,-0.61,-0.79,0.20,0.00,0.00,0.00,2
-0.37,0.02,-1.19,3.11,-0.37,-0.55,0.19,0.00,0.00,0.00,2
-0.37,0.01,-1.18,2.69,0.31,-0.55,0.20,0.00,0.00,0.00,2
-0.36,0.03,-1.19,2.20,0.92,-0.24,0.20,0.00,0.00,0.00,2
-0.38,0.02,-1.20,1.28,1.34,0.12,0.20,0.00,0.00,0.00,2
-0.36,0.03,-1.19,3.48,-0.98,-0.67,0.20,0.00,0.00,0.00,2
-0.35,0.03,-1.17,2.56,0.67,-0.31,0.19,0.00,0.00,0.00,2
-0.35,0.04,-1.18,5.74,-3.60,-1.95,0.20,0.00,0.00,0.00,2
-0.37,0.02,-1.19,2.56,-0.24,-0.61,0.19,0.00,0.00,0.00,2
-0.36,0.02,-1.19,1.53,2.93,0.37,0.19,0.00,0.00,0.00,2
-0.36,0.02,-1.19,3.11,-0.24,-0.92,0.20,0.00,0.00,0.00,2
-0.37,0.02,-1.16,0.31,2.08,-0.06,0.19,0.00,0.00,0.00,2
-0.38,0.01,-1.19,3.78,-0.61,-0.73,0.20,0.00,0.00,0.00,2
-0.38,0.01,-1.19,3.42,-0.49,0.12,0.20,0.00,0.00,0.00,2
-0.35,0.01,-1.17,1.77,1.83,-0.24,0.21,0.00,0.18,0.00,2
-0.38,0.00,-1.18,4.82,-2.99,-1.10,0.20,0.00,0.00,0.00,2
-0.52,0.06,-1.12,11.41,-2.87,18.31,0.22,0.00,0.00,0.00,2
-0.40,0.04,-1.18,1.40,-0.12,-0.31,0.20,0.00,0.00,0.00,2
-0.38,0.05,-1.21,1.71,1.16,-0.06,0.20,0.00,0.00,0.00,2
-0.36,0.05,-1.17,3.78,-0.37,-0.73,0.17,0.00,0.00,0.00,2
-0.35,0.06,-1.17,4.09,-1.83,-1.46,0.20,0.00,0.00,0.00,2
-0.38,0.05,-1.19,2.81,-0.18,-0.55,0.20,0.00,0.00,0.00,2
-0.37,0.05,-1.18,2.99,-0.24,-0.43,0.20,0.00,0.00,0.00,2
-0.36,0.06,-1.23,4.64,0.18,-0.92,0.20,0.00,0.00,0.00,2
-0.35,0.07,-1.18,3.48,0.12,-0.31,0.21,0.00,0.00,0.00,2
-0.37,0.07,-1.18,3.30,-0.12,-0.06,0.20,0.00,0.00,0.00,2
-0.37,0.07,-1.18,2.87,0.31,-0.61,0.20,0.00,0.00,0.00,2
-0.37,0.06,-1.19,3.05,0.06,-0.61,0.20,0.00,0.00,0.00,2
-0.36,0.07,-1.18,3.05,-0.18,-0.61,0.20,0.00,0.00,0.00,2
-0.36,0.08,-1.18,3.05,0.12,-0.61,0.20,0.00,0.00,0.00,2
-0.37,0.07,-1.20,3.66,-0.73,-0.79,0.19,0.00,0.00,0.00,2
-0.37,0.08,-1.19,3.17,0.12,-0.49,0.20,0.00,0.00,0.00,2
-0.37,0.08,-1.19,2.87,0.00,-0.43,0.20,0.00,0.00,0.00,2
-0.36,0.09,-1.18,9.34,-0.92,12.57,0.20,0.00,0.00,0.00,2
-0.37,0.08,-1.19,2.99,-0.18,-0.49,0.20,0.00,0.00,0.00,2
-0.36,0.08,-1.18,3.11,0.06,-0.49,0.22,0.00,0.00,0.55,2
-0.36,0.10,-1.18,2.50,0.61,-0.31,0.21,0.00,0.00,0.90,2
-0.36,0.11,-1.19,4.33,-0.43,-0.73,0.19,0.00,0.00,0.00,2
-0.38,0.11,-1.19,-8.79,1.40,5.25,0.20,0.00,0.00,0.00,2
-0.36,0.09,-1.18,2.69,0.24,-0.24,0.19,0.00,0.00,0.00,2
-0.34,0.06,-1.14,9.03,0.37,6.71,0.20,0.00,0.00,0.00,2
-0.36,0.10,-1.18,3.85,-0.43,-0.67,0.21,0.00,0.00,0.00,2
-0.36,0.10,-1.17,2.81,0.00,-0.49,0.20,0.00,0.00,0.00,2
-0.37,0.10,-1.17,3.11,-0.55,-0.55,0.19,0.00,0.00,0.00,2
-0.36,0.10,-1.17,3.54,-0.24,-0.85,0.20,0.00,0.00,0.00,2
-0.36,0.11,-1.18,2.44,0.06,-0.18,0.20,0.00,0.00,0.00,2
-0.36,0.10,-1.19,3.60,-0.73,-0.79,0.20,0.00,0.00,0.00,2
-0.36,0.11,-1.18,2.62,0.06,-0.49,0.20,0.00,0.00,0.00,2
-0.37,0.11,-1.20,-0.12,1.34,-0.67,0.20,0.00,0.00,0.00,2
-0.36,0.11,-1.18,2.38,0.31,-0.12,0.19,0.00,0.00,0.00,2
-0.37,0.11,-1.19,2.50,0.79,-0.31,0.20,0.00,0.23,0.00,2
-0.38,0.12,-1.19,3.91,-0.85,-0.79,0.20,0.00,0.00,0.00,2
-0.36,0.11,-1.18,3.30,-0.24,-0.55,0.20,0.00,0.15,0.00,2
-0.35,0.11,-1.18,2.62,0.12,-0.18,0.20,0.00,0.00,0.00,2
-0.36,0.12,-1.18,3.30,-0.12,-0.37,0.19,0.00,0.00,0.00,2
-0.36,0.11,-1.18,3.30,-0.18,-0.79,0.20,0.00,0.00,0.00,2
-0.36,0.11,-1.18,2.56,0.31,-0.37,0.20,0.00,0.00,0.00,2
-0.36,0.11,-1.18,3.66,-0.61,-1.04,0.20,0.00,0.06,0.00,2
-0.36,0.11,-1.17,2.93,-0.06,-0.43,0.20,0.00,0.00,0.00,2
-0.37,0.10,-1.19,2.75,-0.79,-0.37,0.19,0.00,0.00,0.00,2
-0.37,0.11,-1.19,3.36,0.31,-0.61,0.19,0.00,0.00,0.00,2
-0.37,0.10,-1.19,3.97,-0.61,-0.98,0.19,0.00,0.00,0.00,2
-0.36,0.11,-1.17,2.32,0.49,-0.37,0.20,0.00,0.00,0.00,2
-0.36,0.10,-1.18,3.17,0.24,-0.61,0.20,0.00,0.00,0.00,2
-0.36,0.11,-1.20,3.17,-0.24,-0.67,0.20,0.00,0.00,0.00,2
-0.36,0.10,-1.18,1.95,0.49,0.06,0.20,0.00,0.00,0.00,2
-0.35,0.11,-1.17,3.11,0.31,-0.61,0.20,0.00,0.00,0.00,2
-0.37,0.12,-1.18,2.81,0.18,-0.31,0.20,0.00,0.00,0.00,2
-0.38,0.11,-1.20,4.15,-0.67,-0.24,0.20,0.00,0.00,0.00,2
-0.37,0.11,-1.19,3.23,0.31,-0.67,0.20,0.00,0.00,0.00,2
-0.36,0.10,-1.19,2.99,-0.06,-0.55,0.20,0.00,0.00,0.00,2
-0.37,0.10,-1.20,3.11,0.24,-0.55,0.19,0.00,0.00,0.00,2
-0.36,0.10,-1.19,2.32,0.24,-0.24,0.19,0.00,0.00,0.00,2
-0.36,0.09,-1.18,3.72,-0.73,-1.10,0.21,0.00,0.00,0.00,2
-0.36,0.10,-1.19,3.05,-0.31,-0.31,0.20,0.00,0.00,0.25,2
-0.36,0.09,-1.19,3.23,-0.31,-0.85,0.21,0.00,0.00,0.24,2
-0.36,0.09,-1.19,3.54,0.24,-0.67,0.20,0.00,0.00,0.13,2
-0.35,0.09,-1.17,2.99,0.18,-0.43,0.20,0.00,0.00,0.00,2
-0.35,0.10,-1.19,3.17,0.06,-0.43,0.20,0.00,0.00,0.00,2
-0.36,0.10,-1.18,3.17,-0.43,-0.49,0.19,0.00,0.00,0.00,2
-0.35,0.10,-1.17,2.01,0.43,-0.12,0.19,0.00,0.00,0.00,2
-0.36,0.09,-1.18,2.99,0.06,-0.55,0.20,0.00,0.00,0.00,2
-0.35,0.10,-1.17,2.08,0.73,0.18,0.20,0.00,0.00,0.00,2
-0.38,0.09,-1.20,2.56,0.12,-0.37,0.19,0.00,0.00,0.00,2
-0.36,0.10,-1.18,2.69,0.06,-0.61,0.19,0.00,0.00,0.00,2
-0.36,0.10,-1.18,3.72,-0.06,-0.73,0.19,0.00,0.00,0.00,2
-0.36,0.10,-1.19,2.44,0.43,-0.55,0.19,0.00,0.00,0.00,2
-0.36,0.09,-1.20,2.38,0.18,-0.18,0.19,0.00,0.00,0.00,2
-0.37,0.11,-1.21,2.87,0.06,-0.49,0.19,0.00,0.00,0.00,2
-0.36,0.10,-1.18,2.56,0.43,-0.55,0.17,0.00,0.00,0.00,2
-0.36,0.10,-1.20,2.32,1.10,-0.49,0.20,0.00,0.00,0.00,2
-0.35,0.11,-1.15,2.69,1.40,-0.37,0.20,0.00,0.00,0.00,2
-0.37,0.09,-1.18,4.39,-0.79,-0.98,0.19,0.00,0.00,0.00,2
-0.37,0.10,-1.20,3.42,-0.92,-0.92,0.19,0.00,0.00,0.00,2
-0.36,0.10,-1.20,4.03,-0.24,-1.34,0.19,0.00,0.00,0.00,2
-0.41,0.09,-1.17,16.42,-4.03,-3.11,0.19,0.00,0.00,0.00,2
-0.35,0.11,-1.17,1.53,0.67,0.00,0.20,0.00,0.00,0.00,2
-0.36,0.10,-1.17,-0.49,2.93,1.10,0.19,0.00,0.00,0.00,2
-0.35,0.11,-1.19,-1.40,3.42,1.34,0.19,0.00,0.00,0.00,2
-0.34,0.09,-1.17,2.69,0.98,-0.37,0.20,0.00,0.00,0.00,2
-0.36,0.10,-1.18,3.30,0.06,-0.24,0.20,0.00,0.00,0.00,2
-0.36,0.10,-1.17,10.31,-5.55,-4.39,0.20,0.00,0.00,0.00,2
-0.34,0.09,-1.15,0.06,0.61,-0.06,0.19,0.00,0.00,0.00,2
-0.36,0.11,-1.18,2.56,1.04,-0.24,0.19,0.00,0.00,0.00,2
-0.37,0.10,-1.19,2.08,1.83,0.00,0.20,0.00,0.00,0.00,2
-0.36,0.10,-1.20,2.81,0.98,-0.61,0.19,0.00,0.00,0.00,2
-0.34,0.13,-1.19,-2.38,3.11,-0.43,0.20,0.00,0.00,0.00,2
-0.36,0.09,-1.18,0.12,2.38,0.67,0.19,0.00,0.00,0.00,2
-0.37,0.07,-1.17,1.95,0.18,-0.18,0.19,0.00,0.00,0.00,2
-0.37,0.07,-1.18,2.93,-0.49,-0.73,0.19,0.00,0.00,0.00,2
-0.33,0.12,-1.17,2.08,0.61,-0.06,0.20,0.00,0.00,0.00,2
-0.36,0.09,-1.18,3.11,-0.31,-0.61,0.19,0.00,0.00,0.00,2
-0.41,0.07,-1.20,6.10,-5.49,-2.75,0.20,0.00,0.00,0.00,2
-0.37,0.08,-1.19,4.09,-0.98,-1.04,0.20,0.00,0.00,0.00,2
-0.37,0.08,-1.16,-3.72,5.25,2.93,0.19,0.00,0.00,0.00,2
-0.39,0.06,-1.19,-0.92,3.23,1.34,0.19,0.00,0.00,0.00,2
-0.36,0.08,-1.18,-0.92,3.48,1.46,0.20,0.00,0.00,0.00,2
-0.39,0.07,-1.20,8.06,-4.70,-3.42,0.19,0.00,0.00,0.00,2
-0.37,0.07,-1.18,6.65,-3.23,-2.50,0.20,0.00,0.43,0.00,2
-0.37,0.08,-1.18,4.52,-1.59,-1.40,0.20,0.00,0.78,0.00,2
-0.35,0.08,-1.17,1.89,1.65,0.12,0.20,0.14,0.00,0.00,2
-0.36,0.08,-1.18,3.23,-1.34,-1.34,0.19,0.00,0.00,0.00,2
-0.37,0.08,-1.19,3.66,-0.92,-1.22,0.19,0.00,0.00,0.00,2
-0.37,0.08,-1.20,1.59,1.46,0.37,0.19,0.00,0.00,0.00,2
-0.36,0.08,-1.19,2.26,0.24,-0.31,0.20,0.00,0.00,0.00,2
-0.36,0.08,-1.19,3.36,-0.49,-0.98,0.19,0.00,0.00,0.00,2
-0.37,0.08,-1.20,1.16,1.40,0.24,0.16,0.00,0.00,0.00,2
-0.40,0.09,-1.21,2.56,-1.77,-0.37,0.19,0.00,0.00,0.00,2
-0.36,0.09,-1.18,3.91,0.37,-0.43,0.19,0.00,0.00,0.00,2
-0.34,0.09,-1.15,2.14,1.10,0.06,0.19,0.00,0.00,0.00,2
-0.36,0.08,-1.18,5.07,-1.77,-1.71,0.20,0.00,0.00,0.00,2
-0.37,0.08,-1.19,2.14,0.73,-0.18,0.19,0.00,0.00,0.00,2
-0.35,0.08,-1.18,3.78,0.55,-0.73,0.19,0.00,0.00,0.00,2
-0.36,0.08,-1.18,1.65,0.73,-0.06,0.19,0.00,0.00,0.00,2
-0.36,0.09,-1.18,2.81,0.06,-0.37,0.23,0.00,0.00,0.00,2
-0.37,0.07,-1.19,4.64,-1.53,-1.10,0.20,0.00,0.00,0.00,2
-0.36,0.09,-1.19,3.36,-0.18,-0.79,0.20,0.00,0.00,0.00,2
-0.37,0.06,-1.18,3.66,-0.73,-0.79,0.20,0.00,0.00,0.00,2
-0.37,0.06,-1.18,5.00,-1.65,-1.28,0.20,0.00,0.00,0.00,2
-0.48,0.05,-1.29,9.52,-3.97,-5.19,0.20,0.00,0.00,0.00,2
-0.35,0.06,-1.16,3.30,-0.18,-0.43,0.22,0.00,0.00,0.00,2
-0.34,0.09,-1.17,1.95,-3.30,-0.06,0.21,0.00,0.00,0.00,2
-0.35,0.08,-1.20,-0.24,2.01,1.10,0.22,0.00,0.00,0.00,2
-0.33,0.03,-1.26,3.17,2.93,-7.02,0.22,0.00,0.00,0.00,2
-0.29,-0.09,-1.11,-1.28,3.42,8.73,0.22,0.00,0.00,0.00,2
-0.37,0.07,-1.16,1.95,1.95,-0.18,0.22,0.00,0.00,0.00,2
-0.37,0.07,-1.18,0.79,1.10,-1.28,0.20,0.00,0.00,0.00,2
-0.37,0.07,-1.16,1.53,-1.10,-0.31,0.20,0.00,0.00,0.00,2
-0.18,0.13,-1.18,-24.78,-38.64,-6.90,0.21,0.00,0.00,0.00,2
-0.46,0.05,-1.25,9.52,42.24,-6.65,0.20,0.00,0.00,0.00,2
-0.35,-0.03,-1.17,8.54,-3.11,-2.50,0.19,0.00,0.00,0.00,2
-0.37,0.05,-1.18,2.44,0.49,-0.24,0.19,0.00,0.00,0.00,2
-0.36,0.04,-1.17,2.08,1.34,-0.06,0.19,0.00,0.00,0.00,2
-0.37,0.05,-1.18,3.23,-0.24,-0.61,0.20,0.00,0.00,0.00,2
-0.38,0.05,-1.18,3.05,-0.18,-0.73,0.20,0.00,0.00,0.00,2
-0.37,0.05,-1.19,2.87,-0.31,-0.55,0.20,0.00,0.00,0.00,2
-0.37,0.05,-1.18,3.30,-0.31,-0.55,0.20,0.00,0.00,0.00,2
-0.38,0.05,-1.19,2.62,0.43,-0.24,0.19,0.00,0.00,0.00,2
-0.37,0.05,-1.19,2.50,0.18,-0.31,0.20,0.00,0.00,0.00,2
-0.37,0.05,-1.17,2.81,0.06,-0.73,0.19,0.00,0.00,0.00,2
-0.37,0.05,-1.18,3.11,-0.12,-0.67,0.20,0.00,0.00,0.00,2
-0.37,0.05,-1.19,2.87,0.00,-0.79,0.19,0.00,0.00,0.00,2
-0.37,0.06,-1.18,2.44,0.43,-0.24,0.20,0.00,0.00,0.00,2
-0.37,0.05,-1.18,2.93,0.00,-0.61,0.20,0.00,0.00,0.00,2
-0.38,0.05,-1.18,2.62,-0.12,-0.49,0.20,0.00,0.00,0.00,2
-0.38,0.05,-1.18,3.23,0.18,-0.55,0.20,0.00,0.00,0.00,2
-0.37,0.05,-1.19,3.42,-0.18,-0.73,0.20,0.00,0.00,0.00,2
-0.37,0.05,-1.19,2.99,0.18,-0.61,0.19,0.00,0.00,0.00,2
-0.37,0.05,-1.19,2.93,-0.12,-0.24,0.20,0.00,0.00,0.00,2
-0.38,0.05,-1.19,3.11,-0.12,-0.49,0.20,0.00,0.00,0.00,2
-0.38,0.05,-1.19,3.05,-0.12,-0.49,0.20,0.00,0.00,0.00,2
-0.37,0.05,-1.18,2.87,-0.18,-0.67,0.21,0.00,0.00,0.00,2
-0.37,0.05,-1.19,3.11,-0.12,-0.43,0.20,0.00,0.00,0.00,2
-0.37,0.06,-1.18,2.87,-0.12,-0.49,0.20,0.00,0.00,0.00,2
-0.37,0.05,-1.18,2.93,0.31,-0.43,0.20,0.00,0.00,0.00,2
-0.37,0.05,-1.19,2.99,-0.12,-0.67,0.19,0.00,0.00,0.00,2
-0.37,0.05,-1.18,3.17,0.18,-0.55,0.19,0.00,0.00,0.00,2
-0.37,0.05,-1.18,2.87,0.06,-0.37,0.19,0.00,0.00,0.00,2
-0.37,0.06,-1.18,2.99,0.24,-0.31,0.19,0.00,0.00,0.00,2
-0.37,0.05,-1.18,2.75,0.49,-0.55,0.19,0.00,0.00,0.00,2
-0.37,0.05,-1.18,3.36,-0.31,-0.61,0.20,0.00,0.00,0.00,2
-0.38,0.05,-1.18,3.05,0.06,-0.61,0.22,0.00,0.00,0.00,2
-0.37,0.05,-1.18,2.75,0.49,-0.49,0.21,0.00,0.00,0.00,2
-0.37,0.05,-1.18,2.56,0.18,-0.37,0.20,0.00,0.00,0.00,2
-0.37,0.06,-1.18,2.99,0.06,-0.31,0.20,0.00,0.00,0.00,2
-0.37,0.05,-1.18,2.93,0.49,-0.55,0.20,0.00,0.00,0.00,2
-0.37,0.06,-1.19,2.50,0.24,-0.37,0.20,0.00,0.00,0.00,2
-0.37,0.05,-1.18,2.87,-0.18,-0.61,0.19,0.00,0.00,0.00,2
-0.37,0.05,-1.18,2.87,0.06,-0.73,0.19,0.00,0.00,0.00,2
-0.37,0.05,-1.18,3.11,0.12,-0.73,0.19,0.00,0.00,0.00,2
-0.37,0.05,-1.18,2.81,0.06,-0.55,0.20,0.00,0.00,0.00,2
-0.38,0.05,-1.18,3.05,0.31,-0.55,0.19,0.00,0.00,0.00,2
-0.37,0.05,-1.18,2.75,0.31,-0.55,0.21,0.00,0.00,0.00,2
-0.37,0.05,-1.18,2.93,-0.06,-0.49,0.20,0.00,0.00,0.00,2
-0.37,0.05,-1.18,3.05,0.24,-0.67,0.19,0.00,0.00,0.00,2
-0.37,0.05,-1.19,3.11,-0.31,-0.55,0.19,0.00,0.00,0.00,2
-0.38,0.04,-1.18,3.30,-0.37,-0.92,0.20,0.00,0.00,0.00,2
-0.38,0.06,-1.18,3.11,0.00,-0.73,0.20,0.00,0.00,0.00,2
-0.37,0.05,-1.18,4.09,-0.98,-0.85,0.20,0.00,0.00,0.00,2
-0.38,0.07,-1.19,3.23,-1.40,-0.85,0.20,0.00,0.00,0.00,2
-0.36,0.05,-1.18,1.77,0.98,-0.06,0.20,0.00,0.00,0.00,2
-0.36,0.05,-1.18,3.05,-0.49,-0.85,0.20,0.00,0.00,0.00,2
-0.36,0.05,-1.19,2.14,0.79,-0.37,0.19,0.00,0.00,0.00,2
-0.38,0.05,-1.19,3.30,-0.24,-0.37,0.20,0.00,0.00,0.00,2
-0.37,0.03,-1.18,5.00,-1.77,-1.34,0.20,0.00,0.00,0.00,2
-0.37,0.04,-1.18,3.78,-0.31,-0.92,0.19,0.00,0.00,0.00,2
-0.38,0.04,-1.18,4.58,-1.71,-1.22,0.20,0.00,0.00,0.00,2
-0.30,-0.06,-1.20,12.63,1.04,-0.73,0.20,0.00,0.00,0.00,2
-0.33,-0.03,-1.17,-4.70,1.46,3.23,0.19,0.00,0.00,0.00,2
-0.39,-0.02,-1.17,17.09,-1.22,-2.44,0.20,0.00,0.00,0.00,2
-0.37,0.03,-1.18,3.30,0.31,-0.55,0.20,0.00,0.00,0.00,2
-0.36,0.03,-1.18,3.42,0.43,-0.73,0.19,0.00,0.00,0.00,2
-0.41,-0.00,-1.21,25.63,-2.93,-11.23,0.19,0.00,0.00,0.00,2
-0.36,0.05,-1.18,3.23,0.31,-0.79,0.19,0.00,0.00,0.00,2
-0.36,0.04,-1.18,2.50,-1.95,-0.73,0.18,0.00,0.00,0.00,2
-0.39,0.02,-1.12,3.78,0.55,-0.18,0.20,0.00,0.00,0.00,2
-0.35,0.05,-1.17,3.66,-3.48,-1.71,0.20,0.00,0.00,0.00,2
-0.17,0.12,-1.05,-3.72,10.19,6.41,0.20,0.00,0.00,0.00,2
-0.31,0.05,-1.11,2.26,-5.13,-0.92,0.20,0.00,0.00,0.00,2
-0.34,0.05,-1.19,5.19,1.40,-0.24,0.20,0.00,0.00,0.00,2
-0.36,0.05,-1.17,3.48,0.12,-0.79,0.20,0.00,0.00,0.00,2
-0.37,0.05,-1.19,2.93,0.67,-0.06,0.21,0.00,0.00,0.00,2
-0.38,0.04,-1.18,2.93,-0.12,-0.55,0.20,0.00,0.00,0.00,2
-0.38,0.04,-1.19,3.66,-1.40,-0.98,0.20,0.00,0.00,0.00,2
-0.37,0.02,-1.20,2.87,-0.12,-1.10,0.20,0.00,0.00,0.00,2
-0.39,0.04,-1.18,1.89,0.18,-0.18,0.20,0.00,0.00,0.00,2
-0.37,0.05,-1.17,2.99,-0.55,-0.67,0.19,0.00,0.00,0.00,2
-0.36,0.05,-1.17,3.23,0.24,-0.67,0.20,0.00,0.00,0.00,2
-0.37,0.04,-1.18,2.87,0.06,-0.49,0.20,0.00,0.00,0.00,2
-0.38,0.04,-1.19,2.75,0.73,-0.43,0.20,0.00,0.00,0.00,2
-0.37,0.05,-1.19,2.75,0.31,-0.24,0.19,0.00,0.00,0.00,2
-0.37,0.05,-1.18,2.32,0.55,-0.37,0.20,0.00,0.00,0.00,2
-0.37,0.05,-1.18,2.99,0.24,-0.49,0.20,0.00,0.00,0.00,2
-0.37,0.04,-1.18,3.05,-0.12,-0.49,0.20,0.00,0.00,0.00,2
-0.37,0.04,-1.18,2.99,-0.12,-0.49,0.21,0.00,0.00,0.00,2
-0.39,0.05,-1.19,3.11,-0.98,-0.61,0.21,0.00,0.00,0.00,2
-0.37,0.05,-1.18,3.91,-1.28,-0.85,0.22,0.00,0.00,0.00,2
-0.36,0.05,-1.16,3.42,0.00,-0.55,0.22,0.00,0.00,0.00,2
-0.38,0.04,-1.18,2.44,0.49,-0.37,0.22,0.00,0.00,0.00,2
-0.37,0.04,-1.18,2.62,0.24,-0.43,0.22,0.00,0.00,0.00,2
-0.37,0.04,-1.19,2.62,0.55,-0.43,0.21,0.00,0.00,0.00,2
-0.37,0.04,-1.18,3.23,-0.31,-0.67,0.20,0.00,0.00,0.00,2
-0.37,0.04,-1.18,2.56,0.85,-0.24,0.17,0.00,0.00,0.00,2
-0.37,0.04,-1.18,2.99,-0.12,-0.43,0.19,0.00,0.00,0.00,2
-0.37,0.04,-1.18,2.69,0.24,-0.37,0.19,0.00,0.00,0.00,2
-0.37,0.05,-1.19,2.87,0.18,-0.43,0.20,0.00,0.00,0.00,2
-0.37,0.05,-1.19,2.69,-0.43,-0.43,0.20,0.00,0.00,0.00,2
-0.37,0.05,-1.18,2.69,-0.06,-0.31,0.20,0.00,0.00,0.00,2
-0.37,0.05,-1.18,2.99,-0.18,-0.43,0.19,0.00,0.00,0.00,2
-0.38,0.04,-1.19,3.36,-0.67,-0.85,0.19,0.00,0.18,0.00,2
-0.37,0.04,-1.18,2.32,0.43,-0.31,0.20,0.00,0.30,0.00,2
-0.37,0.04,-1.19,3.30,-0.31,-0.43,0.19,0.00,0.27,0.00,2
-0.38,0.04,-1.19,3.23,0.00,-0.43,0.20,0.00,0.00,0.00,2
-0.37,0.03,-1.19,3.11,-0.12,-0.55,0.20,0.00,0.00,0.00,2
-0.37,0.04,-1.18,2.75,-0.12,-0.49,0.19,0.00,0.00,0.00,2
-0.37,0.05,-1.18,2.81,-0.24,-0.55,0.19,0.00,0.00,0.00,2
-0.38,0.04,-1.18,3.78,-0.24,-1.04,0.20,0.00,0.00,0.00,2
-0.37,0.04,-1.18,3.17,-0.24,-0.55,0.20,0.00,0.00,0.00,2
-0.37,0.04,-1.18,2.69,0.37,0.06,0.19,0.00,0.00,0.00,2
-0.38,0.04,-1.18,3.17,0.06,-0.85,0.20,0.00,0.00,0.00,2
-0.37,0.04,-1.18,2.87,0.00,-0.24,0.19,0.00,0.00,0.00,2
-0.37,0.05,-1.18,2.81,-0.06,-0.24,0.20,0.00,0.00,0.00,2
-0.38,0.04,-1.20,3.54,-0.06,-0.67,0.00,0.00,0.00,0.00,2
-0.38,0.04,-1.19,3.48,-0.24,-0.73,0.19,0.00,0.00,0.00,2
-0.37,0.04,-1.19,3.30,-0.43,-0.61,0.19,0.00,0.00,0.00,2
-0.37,0.04,-1.18,2.81,0.18,-0.55,0.15,0.00,0.00,0.00,2
-0.37,0.05,-1.18,2.69,0.12,-0.49,0.16,0.00,0.00,0.00,2
-0.37,0.05,-1.18,2.81,0.18,-0.49,0.00,0.00,0.00,0.00,2
-0.38,0.03,-1.20,3.11,-0.61,-0.61,0.19,0.00,0.00,0.00,2
-0.38,0.05,-1.19,2.08,0.37,-0.24,0.19,0.00,0.00,0.00,2
-0.37,0.04,-1.17,3.85,-0.67,-0.98,0.19,0.00,0.00,0.00,2
-0.37,0.05,-1.18,3.11,0.18,-0.31,0.16,0.00,0.00,0.00,2
-0.37,0.04,-1.18,2.81,-0.18,-0.43,0.00,0.00,0.00,0.00,2
-0.37,0.05,-1.19,2.56,0.73,-0.43,0.00,0.00,0.00,0.00,2
-0.36,0.04,-1.17,3.11,0.24,-0.43,0.00,0.00,0.00,0.00,2
-0.37,0.05,-1.18,3.23,0.12,-0.31,0.00,0.00,0.00,0.00,2
-0.38,0.04,-1.19,2.87,0.06,-0.37,0.44,0.00,0.00,0.00,2
-0.37,0.04,-1.18,2.99,0.06,-0.37,0.66,0.00,0.00,0.00,2
-0.37,0.05,-1.18,3.11,0.18,-0.43,0.00,0.00,0.00,0.00,2
-0.38,0.04,-1.18,2.99,-0.24,-0.43,0.00,0.00,0.00,0.00,2
-0.37,0.05,-1.19,2.56,-0.06,-0.18,0.00,0.00,0.00,0.00,2
-0.36,0.05,-1.17,2.44,0.31,-0.37,0.00,0.00,0.05,0.00,2
-0.37,0.05,-1.17,2.32,1.04,-0.24,0.00,0.00,0.00,0.00,2
-0.37,0.05,-1.18,2.69,0.43,-0.37,0.00,0.00,0.00,0.00,2
-0.37,0.05,-1.19,2.56,0.24,-0.37,0.00,0.00,0.00,0.00,2
-0.38,0.04,-1.18,3.48,-1.04,-0.85,0.00,0.00,0.00,0.00,2
-0.38,0.04,-1.20,2.14,-0.12,0.00,0.00,0.00,0.00,0.00,2
-0.36,0.04,-1.19,3.48,0.43,-0.92,0.00,0.00,0.00,0.00,2
-0.39,0.03,-1.17,1.89,-0.61,-0.37,0.00,0.00,0.00,0.00,2
-0.40,0.05,-1.18,3.36,-0.12,-0.55,0.00,0.00,0.00,0.00,2
-0.37,0.05,-1.17,2.14,0.18,-0.12,0.00,0.00,0.00,0.00,2
-0.38,0.04,-1.18,2.08,0.43,-0.31,0.00,0.00,0.00,0.00,2
-0.38,0.03,-1.16,2.87,0.79,-0.24,0.00,0.00,0.00,0.00,2
-0.38,0.04,-1.19,3.17,0.43,-0.43,0.00,0.00,0.00,0.00,2
-0.37,0.04,-1.18,2.87,0.43,-0.37,0.00,0.00,0.00,0.00,2
-0.37,0.04,-1.19,3.17,0.31,-0.55,0.00,0.00,0.00,0.00,2
-0.37,0.04,-1.18,2.99,0.12,-0.43,0.00,0.00,0.20,0.00,2
-0.39,0.04,-1.18,2.75,-1.22,-0.49,0.00,0.00,0.00,0.12,2
-0.37,0.05,-1.19,2.20,0.43,0.06,0.00,0.00,0.00,0.00,2
-0.40,0.05,-1.21,6.59,0.55,-1.59,0.00,0.00,0.00,0.00,2
-0.37,0.01,-1.21,5.43,-3.05,-1.04,0.18,0.00,0.00,0.00,2
-0.37,0.04,-1.17,3.48,-0.73,-0.98,0.19,0.00,0.00,0.00,2
-0.34,0.09,-1.18,0.92,1.46,0.43,0.19,0.00,0.00,0.00,2
-0.38,0.04,-1.21,1.59,1.77,0.06,0.19,0.00,0.00,0.00,2
-0.38,0.05,-1.18,3.17,-0.73,-0.67,0.20,0.00,0.00,0.00,2
-0.37,0.04,-1.18,3.42,-0.43,-0.61,0.19,0.00,0.00,0.00,2
-0.37,0.04,-1.17,3.72,-0.73,-0.98,0.00,0.00,0.10,0.00,2
-0.37,0.04,-1.18,2.32,0.43,-0.55,0.00,0.00,0.09,0.00,2
-0.35,0.05,-1.17,3.05,0.49,-0.43,0.00,0.00,0.10,0.00,2
-0.37,0.06,-1.16,4.39,-0.79,-0.67,0.19,0.00,0.00,0.00,2
-0.35,0.06,-1.18,2.32,0.67,-0.18,0.19,0.00,0.00,0.00,2
-0.38,0.05,-1.18,1.59,0.92,-0.24,0.19,0.00,0.00,0.00,2
-0.37,0.03,-1.18,2.50,0.43,-0.61,0.19,0.00,0.00,0.00,2
-0.40,-0.00,-1.17,-17.15,1.46,-2.62,0.19,0.00,0.00,0.00,2
-0.40,-0.17,-1.15,3.05,-1.22,-0.67,0.19,0.00,0.00,0.00,2
-0.42,-0.19,-1.14,-6.77,6.90,-6.16,0.19,0.00,0.00,0.00,2
-0.44,-0.19,-1.14,1.28,4.88,-0.85,0.19,0.00,0.00,0.00,2
-0.43,-0.19,-1.15,2.75,1.10,-0.31,0.20,0.00,0.00,0.00,2
-0.44,-0.20,-1.14,1.34,1.65,-0.79,0.19,0.00,0.00,0.00,2
-0.42,-0.19,-1.13,3.05,0.55,-0.43,0.19,0.00,0.00,0.00,2
-0.42,-0.19,-1.13,3.17,0.24,-0.55,0.20,0.00,0.00,0.00,2
-0.42,-0.19,-1.14,3.05,-0.18,-0.67,0.20,0.00,0.00,0.00,2
-0.42,-0.19,-1.14,2.69,0.67,-0.49,0.20,0.00,0.00,0.00,2
-0.42,-0.19,-1.13,3.23,-0.24,-0.61,0.20,0.00,0.00,0.00,2
-0.42,-0.19,-1.14,3.23,0.12,-0.31,0.20,0.00,0.00,0.00,2
-0.43,-0.20,-1.14,3.05,0.18,-0.31,0.19,0.00,0.00,0.00,2
-0.43,-0.19,-1.14,2.69,-0.12,-0.55,0.19,0.00,0.00,0.00,2
-0.35,0.06,-1.16,2.87,-0.18,-0.37,0.19,0.00,0.00,0.00,2
-0.35,0.15,-1.17,-46.81,5.55,-6.90,0.19,0.00,0.00,0.00,2
-0.36,0.09,-1.18,1.34,0.43,0.18,0.19,0.00,0.00,0.00,2
-0.35,0.08,-1.18,3.05,1.16,-0.55,0.18,0.00,0.00,0.00,2
-0.38,0.07,-1.19,8.42,-3.54,-3.30,0.19,0.00,0.00,0.00,2
-0.36,0.09,-1.17,2.38,0.79,-0.18,0.19,0.00,0.00,0.00,2
-0.33,0.09,-1.17,6.10,-0.43,-2.50,0.20,0.00,0.00,0.00,2
-0.37,0.08,-1.18,2.44,0.12,-0.18,0.19,0.00,0.00,0.00,2
-0.35,0.09,-1.17,5.37,-1.59,-1.89,0.19,0.00,0.00,0.00,2
-0.37,0.08,-1.19,3.23,-0.12,-0.61,0.20,0.00,0.00,0.00,2
-0.38,0.09,-1.19,4.33,-0.79,-1.28,0.19,0.00,0.00,0.00,2
-0.35,0.09,-1.18,2.56,0.73,-0.31,0.19,0.00,0.00,0.00,2
-0.36,0.08,-1.19,2.26,0.18,-0.24,0.19,0.00,0.00,0.00,2
-0.36,0.08,-1.19,2.26,0.61,-0.61,0.19,0.00,0.00,0.00,2
-0.36,0.08,-1.18,3.60,-0.37,-0.98,0.20,0.00,0.00,0.00,2
-0.37,0.08,-1.18,2.08,0.61,0.18,0.19,0.00,0.00,0.00,2
-0.36,0.09,-1.18,7.51,-3.78,-3.11,0.20,0.00,0.00,0.00,2
-0.38,0.09,-1.21,3.11,-0.12,-0.43,0.19,0.00,0.00,0.00,2
-0.37,0.07,-1.20,7.51,-4.09,-2.99,0.19,0.00,0.00,0.00,2
-0.38,0.04,-1.19,-1.65,0.12,-4.27,0.19,0.00,0.00,0.00,2
-0.36,-0.01,-1.18,-2.08,2.32,1.22,0.19,0.00,0.00,0.00,2
-0.40,-0.03,-1.18,1.95,0.61,0.12,0.19,0.00,0.00,0.00,2
-0.37,0.00,-1.17,-2.50,1.34,0.79,0.20,0.00,0.00,0.00,2
-0.36,0.05,-1.18,6.29,0.31,-2.01,0.19,0.00,0.00,0.00,2
-0.38,0.05,-1.19,4.39,-0.67,-0.79,0.19,0.00,0.00,0.00,2
-0.37,0.05,-1.18,0.55,0.73,0.31,0.19,0.00,0.00,0.00,2
-0.37,0.06,-1.19,1.95,0.49,-0.18,0.19,0.00,0.00,0.00,2
-0.37,0.06,-1.18,-0.37,1.28,1.04,0.20,0.00,0.00,0.00,2
-0.37,0.05,-1.18,2.50,0.12,-0.18,0.19,0.00,0.00,0.00,2
-0.37,0.05,-1.18,0.85,1.04,0.12,0.19,0.00,0.00,0.00,2
-0.37,0.05,-1.17,3.30,-0.31,-0.73,0.19,0.00,0.00,0.00,2
-0.36,0.05,-1.18,3.17,-0.37,-0.85,0.19,0.00,0.00,0.00,2
-0.39,0.01,-1.16,2.81,-1.95,-0.49,0.20,0.00,0.00,0.00,2
-0.36,0.05,-1.18,3.60,0.12,-0.73,0.19,0.00,0.00,0.00,2
-0.37,0.05,-1.18,5.25,-2.01,-1.65,0.20,0.00,0.00,0.00,2
-0.36,0.07,-1.19,2.50,0.43,-0.43,0.19,0.00,0.00,0.00,2
-0.36,0.06,-1.19,2.81,0.43,0.00,0.19,0.00,0.00,0.00,2
-0.38,0.05,-1.18,3.23,-0.37,-0.61,0.23,0.00,0.00,0.00,2
-0.37,0.05,-1.18,3.42,0.00,-0.61,0.21,0.00,0.00,0.00,2
-0.37,0.05,-1.18,2.38,0.43,-0.31,0.20,0.00,0.00,0.00,2
-0.37,0.06,-1.17,2.81,-0.06,-0.43,0.20,0.00,0.00,0.00,2
-0.38,0.04,-1.18,2.56,0.24,-0.55,0.20,0.00,0.00,0.00,2
-0.38,0.05,-1.18,2.75,0.18,-0.18,0.20,0.00,0.00,0.00,2
-0.37,0.05,-1.18,2.50,0.31,-0.49,0.20,0.00,0.00,0.00,2
-0.37,0.05,-1.18,2.87,0.37,-0.73,0.19,0.00,0.00,0.00,2
-0.37,0.05,-1.18,3.17,-0.24,-0.49,0.20,0.00,0.00,0.00,2
-0.37,0.05,-1.18,2.32,0.31,-0.31,0.20,0.00,0.00,0.00,2
-0.38,0.05,-1.18,2.81,0.00,-0.24,0.20,0.00,0.00,0.00,2
-0.37,0.05,-1.18,2.69,0.00,-0.24,0.20,0.00,0.00,0.00,2
-0.37,0.05,-1.19,2.62,0.37,-0.43,0.20,0.00,0.00,0.00,2
-0.36,0.04,-1.19,3.05,0.06,-0.61,0.19,0.00,0.00,0.00,2
-0.37,0.05,-1.18,3.42,-0.06,-0.49,0.19,0.00,0.00,0.00,2
-0.37,0.05,-1.18,2.69,0.37,-0.49,0.20,0.00,0.00,0.00,2
-0.38,0.05,-1.18,2.99,0.06,-0.55,0.20,0.00,0.00,0.00,2
-0.37,0.05,-1.18,2.81,0.18,-0.31,0.20,0.00,0.00,0.00,2
-0.37,0.05,-1.19,3.17,-0.12,-0.79,0.20,0.00,0.00,0.00,2
-0.37,0.05,-1.17,2.81,0.18,-0.61,0.19,0.00,0.00,0.00,2
-0.37,0.04,-1.17,2.56,0.06,-0.61,0.20,0.00,0.00,0.00,2
-0.37,0.05,-1.18,2.93,0.00,-0.37,0.19,0.00,0.00,0.00,2
-0.37,0.05,-1.18,3.05,0.00,-0.61,0.19,0.00,0.00,0.00,2
-0.37,0.05,-1.18,2.99,-0.12,-0.24,0.20,0.00,0.00,0.00,2
-0.37,0.05,-1.18,2.99,0.06,-0.55,0.19,0.00,0.00,0.00,2
-0.37,0.05,-1.18,2.75,0.12,-0.12,0.19,0.00,0.00,0.00,2
-0.37,0.04,-1.18,3.17,-0.12,-0.73,0.20,0.00,0.00,0.00,2
-0.37,0.05,-1.18,3.05,0.12,-0.49,0.20,0.00,0.00,0.00,2
-0.37,0.05,-1.19,2.87,-0.06,-0.43,0.20,0.00,0.00,0.00,2
-0.37,0.05,-1.18,2.99,0.24,-0.55,0.20,0.00,0.00,0.00,2
-0.37,0.06,-1.18,3.30,0.12,-0.92,0.19,0.00,0.00,0.00,2
-0.38,0.05,-1.19,2.93,0.18,-0.49,0.19,0.00,0.00,0.00,2
-0.38,0.05,-1.18,2.99,0.37,-0.31,0.19,0.00,0.00,0.00,2
-0.38,0.05,-1.17,2.01,0.00,-0.12,0.19,0.00,0.00,0.00,2
-0.37,0.05,-1.17,3.42,-0.31,-0.49,0.19,0.00,0.00,0.00,2
-0.37,0.05,-1.18,0.12,2.75,0.79,0.19,0.00,0.00,0.00,2
-0.38,0.05,-1.18,2.56,-0.49,0.24,0.20,0.00,0.00,0.00,2
-0.39,-0.05,-1.18,11.47,-1.53,-2.44,0.19,0.00,0.00,0.00,2
-0.38,-0.03,-1.17,3.72,-0.12,-0.98,0.19,0.00,0.00,0.00,2
-0.38,0.03,-1.15,10.19,-1.95,7.20,0.19,0.00,0.00,0.00,2
-0.37,0.06,-1.19,3.11,-0.31,-0.55,0.19,0.00,0.00,0.00,2
-0.37,0.04,-1.18,3.36,-0.37,-0.73,0.21,0.00,0.00,0.00,2
-0.38,0.05,-1.18,4.09,-0.55,-0.98,0.22,0.00,0.00,0.67,2
-0.37,0.05,-1.18,2.93,-0.12,-0.61,0.22,0.00,0.00,0.60,2
-0.38,0.04,-1.19,2.99,0.06,-0.67,0.23,0.00,0.00,0.00,2
-0.37,0.05,-1.19,2.75,0.24,-0.31,0.21,0.00,0.05,0.00,2
-0.38,0.04,-1.18,2.93,0.31,-0.49,0.20,0.00,0.13,0.00,2
-0.38,0.05,-1.18,2.69,0.18,-0.73,0.20,0.00,0.14,0.00,2
-0.37,0.04,-1.18,2.62,0.12,-0.43,0.20,0.00,0.00,0.00,2
-0.38,0.05,-1.19,3.05,0.18,-0.49,0.18,0.00,0.00,0.00,2
-0.37,0.04,-1.18,2.87,0.06,-0.61,0.21,0.00,0.00,0.00,2
-0.37,0.04,-1.18,2.81,0.24,-0.43,0.20,0.00,0.00,0.00,2
-0.37,0.05,-1.18,2.87,0.12,-0.31,0.20,0.00,0.00,0.00,2
-0.37,0.04,-1.18,3.05,0.00,-0.49,0.20,0.00,0.00,0.00,2
-0.37,0.05,-1.18,3.30,-0.06,-0.55,0.20,0.00,0.00,0.00,2
-0.37,0.04,-1.19,2.87,0.18,-0.43,0.20,0.00,0.00,0.00,2
-0.37,0.04,-1.18,3.60,-0.49,-0.98,0.19,0.00,0.00,0.00,2
-0.37,0.05,-1.18,3.05,0.12,-0.49,0.19,0.00,0.00,0.00,2
-0.38,0.05,-1.18,2.81,0.06,-0.31,0.19,0.00,0.00,0.00,2
-0.37,0.03,-1.18,2.62,0.12,-0.61,0.20,0.00,0.00,0.00,2
-0.38,0.04,-1.19,2.87,0.12,-0.37,0.20,0.00,0.00,0.00,2
-0.38,0.04,-1.18,2.87,0.37,-0.43,0.19,0.00,0.00,0.00,2
-0.37,0.05,-1.18,2.87,0.37,-0.67,0.20,0.00,0.00,0.00,2
-0.37,0.04,-1.18,2.26,0.31,-0.31,0.20,0.00,0.00,0.00,2
-0.38,0.04,-1.18,2.44,0.31,-0.12,0.20,0.00,0.00,0.00,2
-0.38,0.04,-1.18,2.75,0.18,-0.37,0.19,0.00,0.00,0.00,2
-0.41,0.02,-1.16,2.14,-3.66,0.31,0.19,0.00,0.00,0.00,2
-0.37,0.04,-1.18,2.32,0.67,-0.18,0.19,0.00,0.00,0.00,2
-0.37,0.05,-1.19,2.69,0.37,-0.61,0.20,0.00,0.00,0.00,2
-0.37,0.04,-1.18,2.56,0.49,-0.43,0.21,0.00,0.00,0.00,2
-0.37,0.04,-1.18,3.05,-0.12,-0.49,0.20,0.00,0.00,0.00,2
-0.37,0.04,-1.18,3.23,0.37,-0.67,0.20,0.00,0.00,0.00,2
-0.38,0.05,-1.19,2.69,0.00,-0.31,0.19,0.00,0.00,0.00,2
-0.38,0.05,-1.19,2.32,0.31,-0.24,0.19,0.00,0.00,0.00,2
-0.37,0.04,-1.18,3.11,0.12,-0.43,0.21,0.00,0.00,0.00,2
-0.37,0.04,-1.19,2.93,0.06,-0.55,0.20,0.00,0.00,0.00,2
-0.37,0.05,-1.19,2.81,0.43,-0.37,0.19,0.00,0.00,0.00,2
-0.37,0.04,-1.17,2.75,0.55,-0.49,0.20,0.00,0.00,0.00,2
-0.37,0.04,-1.18,3.17,0.06,-0.73,0.20,0.00,0.00,0.00,2
-0.37,0.05,-1.19,2.87,0.18,-0.43,0.21,0.00,0.14,0.00,2
-0.38,0.05,-1.18,3.05,0.00,-0.43,0.22,0.00,0.22,0.00,2
-0.38,0.04,-1.18,2.69,0.12,-0.49,0.22,0.00,0.10,0.00,2
-0.37,0.04,-1.18,2.56,0.12,-0.31,0.22,0.00,0.63,0.00,2
-0.38,0.04,-1.19,2.62,0.37,-0.55,0.21,0.00,0.00,0.00,2
-0.38,0.04,-1.18,3.42,-0.31,-0.67,0.20,0.00,0.00,0.00,2
-0.38,0.04,-1.18,2.93,0.12,-0.61,0.20,0.00,0.00,0.00,2
-0.37,0.04,-1.18,3.60,-0.37,-0.85,0.20,0.00,0.00,0.00,2
-0.38,0.04,-1.19,3.17,0.24,-0.49,0.19,0.00,0.00,0.00,2
-0.37,0.04,-1.18,2.87,0.00,-0.61,0.15,0.00,0.00,0.00,2
-0.37,0.04,-1.19,2.99,0.31,-0.61,0.19,0.00,0.00,0.00,2
-0.38,0.04,-1.18,2.69,0.12,-0.37,0.19,0.00,0.00,0.00,2
-0.37,0.05,-1.17,3.11,-0.06,-0.55,0.20,0.00,0.00,0.00,2
-0.37,0.04,-1.18,2.38,0.55,-0.06,0.20,0.00,0.00,0.00,2
-0.38,0.05,-1.18,1.83,0.31,0.00,0.20,0.00,0.00,0.00,2
-0.37,0.05,-1.19,1.95,0.61,-0.18,0.20,0.00,0.00,0.00,2
-0.38,0.04,-1.18,2.75,0.24,-0.37,0.20,0.00,0.00,0.00,2
-0.38,0.04,-1.19,2.93,-0.06,-0.43,0.20,0.00,0.00,0.00,2
-0.37,0.04,-1.18,2.99,0.00,-0.49,0.19,0.00,0.00,0.00,2
-0.37,0.04,-1.18,2.81,0.18,-0.43,0.19,0.00,0.00,0.00,2
-0.38,0.04,-1.18,2.69,0.31,-0.18,0.19,0.00,0.00,0.00,2
-0.36,0.05,-1.17,2.81,0.31,-0.43,0.19,0.00,0.00,0.00,2
-0.37,0.04,-1.17,3.42,-0.61,-0.67,0.19,0.00,0.00,0.00,2
-0.38,0.04,-1.19,3.11,0.00,-0.49,0.19,0.00,0.00,0.00,2
-0.38,0.05,-1.19,2.50,0.18,-0.43,0.19,0.00,0.00,0.00,2
-0.37,0.05,-1.17,3.48,-0.06,-0.67,0.20,0.00,0.00,0.00,2
-0.37,0.05,-1.18,3.11,0.00,-0.49,0.20,0.00,0.00,0.00,2
-0.37,0.04,-1.19,2.69,0.24,-0.43,0.20,0.00,0.00,0.00,2
-0.37,0.05,-1.18,2.75,0.12,-0.31,0.20,0.00,0.00,0.00,2
-0.37,0.04,-1.18,2.50,0.49,-0.31,0.18,0.00,0.00,0.00,2
-0.37,0.04,-1.18,2.99,-0.12,-0.49,0.18,0.00,0.00,0.00,2
-0.37,0.05,-1.18,2.75,0.00,-0.31,0.19,0.00,0.00,0.00,2
-0.37,0.04,-1.18,2.75,0.37,-0.18,0.19,0.00,0.13,0.00,2
-0.38,0.05,-1.18,2.93,0.00,-0.37,0.19,0.00,0.17,0.00,2
-0.38,0.04,-1.18,3.17,0.00,-0.43,0.19,0.00,0.22,0.00,2
-0.38,0.04,-1.17,2.50,-0.37,-0.43,0.21,0.00,0.00,0.00,2
-0.37,0.05,-1.18,3.05,0.18,-0.55,0.20,0.00,0.00,0.00,2
-0.37,0.04,-1.18,2.87,0.06,-0.43,0.20,0.00,0.00,0.00,2
-0.37,0.05,-1.17,2.81,-0.06,-0.37,0.19,0.00,0.00,0.00,2
-0.37,0.05,-1.18,3.30,0.00,-0.37,0.19,0.00,0.00,0.00,2
-0.37,0.05,-1.17,3.11,0.00,-0.61,0.21,0.00,0.00,0.68,2
-0.37,0.04,-1.18,3.17,-0.06,-0.49,0.22,0.00,0.00,0.78,2
-0.38,0.04,-1.18,2.99,0.12,-0.43,0.21,0.00,0.00,0.81,2
-0.38,0.04,-1.18,3.17,-0.18,-0.43,0.19,0.00,0.00,0.00,2
-0.38,0.05,-1.19,2.44,-0.06,-0.49,0.19,0.00,0.00,0.00,2
-0.37,0.05,-1.18,3.36,-0.12,-0.55,0.19,0.00,0.00,0.00,2
-0.37,0.04,-1.18,3.17,-0.18,-0.73,0.19,0.00,0.00,0.00,2
-0.37,0.04,-1.19,2.93,0.31,-0.24,0.19,0.00,0.00,0.00,2
-0.37,0.04,-1.19,2.99,0.12,-0.37,0.19,0.00,0.00,0.00,2
-0.38,0.04,-1.19,2.87,0.12,-0.61,0.19,0.00,0.00,0.00,2
-0.37,0.04,-1.19,3.17,-0.06,-0.67,0.19,0.00,0.00,0.00,2
-0.38,0.04,-1.19,2.99,0.00,-0.24,0.19,0.00,0.00,0.00,2
-0.37,0.05,-1.18,2.99,0.18,-0.49,0.19,0.00,0.00,0.00,2
-0.37,0.05,-1.18,3.17,0.06,-0.73,0.18,0.00,0.00,0.00,2
-0.38,0.04,-1.18,2.56,0.49,-0.49,0.19,0.00,0.00,0.00,2
-0.37,0.04,-1.18,2.93,0.37,-0.37,0.19,0.00,0.00,0.00,2
-0.37,0.04,-1.17,2.87,-0.37,-0.24,0.19,0.00,0.00,0.00,2
-0.38,0.04,-1.19,1.77,1.16,0.31,0.19,0.00,0.00,0.00,2
-0.37,0.04,-1.18,3.11,0.12,-0.31,0.19,0.00,0.00,0.00,2
-0.38,0.04,-1.18,2.99,0.24,-0.49,0.19,0.00,0.00,0.00,2
-0.38,0.04,-1.19,3.11,0.06,-0.31,0.19,0.00,0.00,0.00,2
-0.37,0.04,-1.18,2.99,0.67,-0.43,0.18,0.00,0.00,0.00,2
-0.38,0.05,-1.19,3.60,-0.18,-0.79,0.19,0.00,0.00,0.00,2
-0.37,0.05,-1.18,2.99,-0.12,-0.61,0.19,0.00,0.00,0.00,2
-0.38,0.05,-1.19,3.05,0.12,-0.61,0.19,0.00,0.00,0.00,2
-0.38,0.05,-1.19,2.99,-0.12,-0.31,0.19,0.00,0.00,0.00,2
-0.37,0.05,-1.18,2.20,0.31,-0.18,0.19,0.00,0.00,0.00,2
-0.37,0.05,-1.18,2.99,0.06,-0.37,0.20,0.00,0.00,0.00,2
-0.37,0.06,-1.21,2.26,0.67,-0.12,0.20,0.00,0.00,0.00,2
-0.37,0.06,-1.18,2.14,0.85,0.00,0.19,0.00,0.00,0.00,2
-0.37,0.05,-1.19,2.93,0.24,-0.49,0.18,0.00,0.00,0.00,2
-0.37,0.05,-1.18,3.05,0.06,-0.37,0.20,0.00,0.00,0.00,2
-0.37,0.05,-1.18,3.05,0.24,-0.43,0.19,0.00,0.00,0.00,2
-0.38,0.05,-1.20,2.93,0.00,-0.73,0.19,0.00,0.00,0.00,2
-0.37,0.05,-1.16,2.44,-0.18,-0.24,0.20,0.00,0.00,0.00,2
-0.37,0.05,-1.18,3.17,0.06,-0.67,0.19,0.00,0.00,0.00,2
-0.38,0.04,-1.20,3.36,0.18,-0.55,0.19,0.00,0.00,0.00,2
-0.38,0.05,-1.18,2.87,0.06,-0.55,0.19,0.00,0.00,0.00,2
-0.37,0.05,-1.19,2.81,0.37,0.00,0.19,0.00,0.00,0.00,2
-0.37,0.05,-1.18,3.11,-0.12,-0.49,0.18,0.00,0.00,0.00,2
-0.37,0.06,-1.18,3.05,0.06,-0.73,0.20,0.00,0.00,0.00,2
-0.37,0.04,-1.18,3.17,-0.12,-0.73,0.21,0.00,0.00,0.00,2
-0.36,0.04,-1.18,4.21,0.00,-0.92,0.19,0.00,0.00,0.00,2
-0.38,0.05,-1.19,3.11,-0.49,-0.79,0.19,0.00,0.00,0.00,2
-0.37,0.06,-1.19,2.14,0.92,0.06,0.19,0.00,0.00,0.00,2
-0.37,0.05,-1.19,3.48,-0.18,-0.73,0.19,0.00,0.00,0.00,2
-0.38,0.05,-1.18,2.62,0.43,-0.18,0.19,0.00,0.00,0.00,2
-0.37,0.05,-1.18,2.81,0.18,-0.31,0.20,0.00,0.00,0.00,2
-0.37,0.05,-1.18,2.75,-0.18,-0.37,0.19,0.00,0.00,0.00,2
-0.37,0.05,-1.17,3.91,-0.24,-0.85,0.20,0.00,0.00,0.00,2
-0.37,0.05,-1.18,2.93,0.18,-0.49,0.20,0.00,0.00,0.00,2
-0.38,0.05,-1.19,3.36,-0.24,-0.92,0.19,0.00,0.00,0.00,2
-0.37,0.05,-1.17,2.87,0.12,-0.55,0.20,0.00,0.00,0.00,2
-0.37,0.05,-1.18,2.81,0.24,-0.55,0.21,0.00,0.00,0.00,2
-0.37,0.05,-1.18,2.81,0.37,-0.55,0.20,0.00,0.00,0.00,2
-0.38,0.05,-1.18,3.05,0.12,-0.49,0.20,0.00,0.00,0.00,2
-0.37,0.05,-1.18,2.93,0.12,-0.24,0.19,0.00,0.00,0.00,2
-0.37,0.05,-1.18,2.81,0.12,-0.37,0.19,0.00,0.25,0.00,2
-0.37,0.05,-1.18,2.81,0.24,-0.61,0.19,0.00,0.33,0.00,2
-0.37,0.05,-1.17,3.17,0.24,-0.67,0.20,0.00,0.34,0.00,2
-0.38,0.05,-1.18,3.05,0.12,-0.55,0.21,0.00,0.00,0.84,2
-0.37,0.05,-1.18,2.75,0.18,-0.55,0.21,0.00,0.00,0.85,2
-0.37,0.05,-1.18,3.17,-0.31,-0.49,0.21,0.00,0.22,0.81,2
-0.37,0.05,-1.19,2.99,-0.37,-0.73,0.21,0.00,0.39,0.79,2
-0.37,0.05,-1.19,3.23,-0.37,-0.92,0.19,0.00,0.00,0.00,2
-0.37,0.05,-1.17,2.69,0.31,-0.61,0.19,0.00,0.00,0.00,2
-0.37,0.06,-1.18,3.23,0.06,-0.55,0.19,0.00,0.00,0.00,2
-0.37,0.05,-1.19,2.69,0.24,-0.37,0.19,0.00,0.00,0.00,2
-0.37,0.05,-1.18,3.05,0.18,-0.55,0.20,0.00,0.00,0.00,2
-0.37,0.05,-1.18,2.75,0.00,-0.31,0.20,0.00,0.00,0.00,2
-0.37,0.05,-1.18,2.44,0.24,-0.24,0.17,0.00,0.00,0.00,2
-0.37,0.05,-1.19,2.62,0.12,-0.37,0.19,0.00,0.00,0.00,2
-0.37,0.05,-1.19,3.11,-0.18,-0.43,0.19,0.00,0.00,0.00,2
-0.37,0.05,-1.18,2.99,-0.31,-0.55,0.19,0.00,0.00,0.00,2
-0.37,0.05,-1.18,3.05,-0.12,-0.49,0.19,0.00,0.00,0.00,2
-0.38,0.06,-1.19,2.87,0.06,-0.67,0.19,0.00,0.00,0.00,2
-0.38,0.05,-1.18,3.23,-0.06,-0.49,0.19,0.00,0.00,0.00,2
-0.37,0.05,-1.18,2.81,0.00,-0.37,0.19,0.00,0.00,0.00,2
-0.37,0.05,-1.18,2.87,0.43,-0.55,0.20,0.00,0.00,0.00,2
-0.37,0.05,-1.18,2.81,0.37,-0.24,0.21,0.00,0.00,0.00,2
-0.37,0.05,-1.18,3.17,-0.12,-0.55,0.19,0.00,0.00,0.00,2
-0.39,0.04,-1.12,5.43,-1.46,-2.32,0.19,0.00,0.00,0.00,2
-0.37,0.09,-1.20,-3.78,-0.43,-7.08,0.19,0.00,0.00,0.00,2
-0.35,0.05,-1.20,-4.39,0.37,-4.33,0.22,0.00,0.00,0.00,2
-0.38,0.05,-1.18,2.44,1.10,-0.12,0.19,0.00,0.00,0.00,2
-0.37,0.06,-1.18,2.81,0.31,-0.49,0.19,0.00,0.00,0.00,2
-0.39,0.06,-1.19,2.26,2.20,-0.31,0.20,0.00,0.00,0.00,2
-0.38,0.07,-1.18,3.05,-0.37,-0.79,0.19,0.00,0.00,0.00,2
-0.38,0.07,-1.19,2.56,-0.24,-0.43,0.19,0.00,0.00,0.00,2
-0.60,-0.11,-0.95,-74.40,5.43,6.71,0.19,0.00,0.00,0.00,2
-0.64,-0.09,-0.95,6.04,-5.43,-7.08,0.19,0.00,0.00,0.00,2
-0.40,-0.24,-1.06,-0.49,-39.31,71.90,0.20,0.00,0.00,0.00,2
-0.24,-0.68,-1.06,-0.92,7.57,-15.08,0.19,0.00,0.00,0.00,2
-0.31,-0.57,-0.95,26.55,-3.66,8.36,0.00,0.00,0.12,0.00,2
-0.35,-0.41,-1.05,11.11,0.00,9.22,0.00,0.00,0.12,0.00,2
-0.46,-0.44,-1.13,23.56,8.54,5.19,0.00,0.00,0.11,0.00,2
-0.36,-0.38,-1.07,-18.86,-28.02,17.52,0.00,0.00,0.11,0.00,2
-0.41,-0.53,-1.14,-0.61,17.64,-9.83,0.00,0.00,0.11,0.00,2
-0.27,-0.12,-1.20,9.89,-10.50,-0.12,0.00,0.00,0.10,0.00,2
-0.14,0.29,-1.18,8.79,-3.11,-4.39,0.00,0.00,0.11,0.00,2
-0.23,0.23,-1.26,-13.98,4.82,-1.65,0.00,0.00,0.00,0.00,2
-0.21,0.13,-1.24,37.66,11.29,-0.49,0.00,0.00,0.00,0.00,2
-0.20,0.16,-1.21,10.99,0.73,-2.20,0.00,0.00,0.04,0.00,2
-0.17,0.10,-1.21,-23.38,-8.24,1.34,0.00,0.00,0.00,0.00,2
-0.16,0.08,-1.24,-9.09,-4.64,-1.59,0.00,0.00,0.00,0.00,2
-0.05,-0.10,-1.23,-21.73,-13.67,0.55,0.00,0.00,0.00,0.00,2
0.01,-0.05,-1.25,27.10,6.59,3.66,0.00,0.00,0.11,0.00,2
0.06,0.21,-1.20,5.00,-9.58,-1.46,0.00,0.00,0.11,0.00,2
0.06,0.23,-1.24,7.39,34.24,0.73,0.00,0.00,0.12,0.00,2
0.01,0.11,-1.25,9.70,3.91,-0.12,0.00,0.00,0.11,0.00,2
-0.06,0.06,-1.29,-16.66,4.03,-3.72,0.00,0.00,0.10,0.00,2
-0.06,-0.15,-1.23,-12.51,-0.61,8.91,0.21,0.00,0.00,0.00,2
-0.07,-0.12,-1.22,5.25,11.90,5.43,0.19,0.00,0.00,0.00,2
-0.13,-0.12,-1.25,14.89,5.86,-3.66,0.19,0.00,0.00,0.00,2
-0.14,-0.05,-1.28,14.77,6.35,-5.74,0.20,0.00,0.00,0.00,2
-0.16,0.05,-1.23,0.98,-1.59,2.26,0.00,0.00,0.00,0.00,2
-0.14,0.04,-1.24,5.13,-4.82,-1.95,0.00,0.00,0.00,0.00,2
-0.13,0.03,-1.25,-5.80,-7.45,1.22,0.00,0.00,0.00,0.00,2
-0.08,-0.04,-1.22,2.75,4.94,-2.75,0.00,0.00,0.00,0.00,2
-0.06,-0.01,-1.24,6.77,-9.40,-3.60,0.00,0.00,0.00,0.00,2
-0.07,0.02,-1.27,0.92,1.59,-2.56,0.00,0.00,0.00,0.00,2
-0.06,0.00,-1.24,1.95,-0.24,0.98,0.00,0.00,0.00,0.00,2
-0.07,0.04,-1.24,11.05,2.56,1.59,0.00,0.00,0.00,0.00,2
-0.02,0.01,-1.29,7.02,2.14,4.09,0.00,0.00,0.00,0.00,2
-0.18,-0.04,-1.23,6.90,2.20,4.52,0.00,0.00,0.00,0.00,2
-0.18,-0.02,-1.22,3.66,2.08,1.22,0.68,0.00,0.00,0.00,2
-0.22,0.02,-1.23,4.15,-0.37,0.00,0.77,0.00,0.00,0.00,2
-0.21,0.02,-1.22,2.08,-1.83,-1.46,0.79,0.00,0.00,0.00,2
-0.22,0.01,-1.24,2.75,-0.85,-1.28,0.00,0.00,0.00,0.00,2
-0.21,0.00,-1.23,1.28,0.31,-1.53,0.00,0.00,0.00,0.00,2
-0.25,0.04,-1.23,3.85,0.12,6.04,0.00,0.00,0.00,0.00,2
-0.22,0.02,-1.22,2.81,-0.61,-0.98,0.00,0.00,0.00,0.00,2
-0.21,0.01,-1.22,2.62,0.31,-0.43,0.00,0.00,0.00,0.00,2
-0.28,0.06,-1.20,7.69,-0.06,-0.73,0.00,0.00,0.12,0.00,2
-0.23,0.04,-1.22,0.92,-0.49,0.79,0.00,0.00,0.15,0.00,2
-0.22,0.05,-1.20,-3.05,9.34,-1.95,0.00,0.00,0.00,0.00,2
-0.28,0.09,-1.22,6.90,12.94,-1.34,0.00,0.00,0.00,0.00,2
-0.29,0.06,-1.20,-2.38,-0.61,-5.86,0.00,0.00,0.00,0.52,2
-0.26,0.04,-1.22,2.56,-0.12,-0.37,0.00,0.00,0.00,0.61,2
-0.21,0.00,-1.23,-2.69,-1.77,1.46,0.00,0.00,0.00,0.00,2
-0.20,-0.01,-1.22,2.20,4.82,0.79,0.61,0.00,0.00,0.00,2
-0.22,0.03,-1.21,2.44,0.31,-1.65,0.73,0.00,0.00,0.00,2
-0.24,0.01,-1.22,3.78,-3.78,-2.62,0.00,0.00,0.00,0.00,2
-0.25,0.02,-1.21,2.62,0.00,-4.70,0.00,0.00,0.00,0.00,2
-0.20,0.02,-1.23,-1.95,0.43,0.73,0.00,0.00,0.00,0.00,2
-0.20,0.02,-1.23,2.81,2.93,-4.70,0.00,0.00,0.00,0.00,2
-0.33,0.04,-1.19,2.38,2.81,2.99,0.00,0.00,0.00,0.00,2
-0.29,0.00,-1.19,-1.46,-9.34,1.59,0.00,0.00,0.00,0.00,2
-0.22,-0.08,-1.27,-20.14,7.08,22.64,0.00,0.00,0.00,0.00,2
-0.15,0.32,-1.23,3.36,-3.85,-0.85,0.00,0.00,0.00,0.00,2
0.01,0.32,-1.19,5.07,-13.37,-19.10,0.00,0.00,0.00,0.00,2
-0.25,0.05,-1.24,-17.94,18.98,18.55,0.00,0.00,0.00,0.00,2
-0.40,0.04,-1.17,10.19,9.16,2.08,0.00,0.00,0.00,0.00,2
-0.37,-0.08,-1.17,-32.78,-24.11,7.63,0.00,0.00,0.00,0.00,2
-0.27,-0.20,-1.18,4.52,1.46,-1.71,0.00,0.00,0.00,0.00,2
-0.54,-0.15,-1.09,6.16,19.47,3.42,0.00,0.00,0.00,0.00,2
-0.63,-0.21,-1.07,-65.73,-36.68,28.87,0.00,0.00,0.00,0.00,2
0.11,-0.82,-0.77,6.53,-6.59,4.64,0.00,0.00,0.00,0.00,2
0.14,-0.82,-0.79,45.78,32.84,-14.47,0.00,0.00,0.00,0.00,2
-0.09,-0.79,-0.79,7.26,28.08,-6.59,0.00,0.00,0.00,0.00,2
-0.07,-0.74,-0.88,24.90,3.72,-0.61,0.00,0.00,0.00,0.00,2
-0.17,-0.43,-1.09,24.96,10.13,-0.73,0.00,0.00,0.00,0.00,2
-0.16,0.12,-1.23,2.14,6.10,2.26,0.00,0.00,0.00,0.00,2
-0.09,0.09,-1.24,3.78,0.98,1.83,0.00,0.00,0.00,0.00,2
-0.11,0.09,-1.22,0.37,1.28,2.38,0.00,0.00,0.00,0.00,2
-0.11,0.10,-1.24,3.42,3.36,-0.18,0.00,0.00,0.00,0.00,2
-0.14,0.11,-1.24,2.93,0.43,-2.69,0.00,0.00,0.00,0.00,2
-0.10,0.11,-1.25,2.26,-2.08,-0.06,0.00,0.00,0.00,0.00,2
-0.13,0.11,-1.22,3.85,0.37,0.55,0.00,0.00,0.00,0.00,2
-0.13,0.12,-1.23,4.15,-1.10,0.67,0.00,0.00,0.00,0.00,2
-0.13,0.14,-1.23,2.87,0.55,-1.53,0.00,0.00,0.00,0.00,2
-0.12,0.13,-1.22,3.05,-0.31,-3.17,0.00,0.00,0.00,0.00,2
-0.12,0.13,-1.23,2.56,-0.67,1.59,0.00,0.00,0.00,0.00,2
-0.12,0.11,-1.24,9.70,-4.70,0.85,0.00,0.00,0.00,0.00,2
-0.11,0.13,-1.25,1.71,-0.43,-3.23,0.00,0.00,0.45,0.00,2
-0.11,0.13,-1.24,1.46,-0.61,-2.56,0.00,0.00,0.39,0.00,2
-0.11,0.12,-1.23,1.46,-4.58,2.75,0.00,0.00,0.00,0.00,2
-0.10,0.11,-1.23,0.55,0.49,3.36,0.00,0.00,0.00,0.00,2
-0.10,0.14,-1.23,2.99,-1.10,1.34,0.00,0.00,0.00,0.00,2
-0.11,0.14,-1.25,1.89,0.67,-0.98,0.00,0.00,0.00,0.00,2
-0.11,0.14,-1.23,2.62,0.67,-3.17,0.00,0.00,0.00,0.00,2
-0.11,0.14,-1.21,4.58,2.81,-3.54,0.00,0.00,0.00,0.00,2
-0.13,0.16,-1.22,3.42,-0.06,0.43,0.00,0.00,0.00,0.00,2
-0.12,0.15,-1.22,11.41,-1.34,0.55,0.00,0.00,0.00,0.28,2
-0.09,0.16,-1.24,2.56,0.12,2.75,0.00,0.00,0.00,0.46,2
-0.11,0.11,-1.23,-3.97,-3.48,5.98,0.00,0.00,0.00,0.00,2
-0.14,0.10,-1.25,-3.36,-0.24,10.86,0.00,0.00,0.00,0.00,2
-0.11,0.09,-1.23,2.75,0.85,0.00,0.00,0.00,0.00,0.00,2
-0.10,0.12,-1.21,6.84,-6.71,-11.84,0.00,0.00,0.00,0.00,2
-0.12,0.14,-1.25,2.14,-4.33,-3.78,0.00,0.00,0.00,0.00,2
-0.12,0.14,-1.23,3.36,0.31,5.49,0.00,0.00,0.00,0.00,2
-0.05,0.12,-1.22,1.59,0.37,-0.61,0.00,0.00,0.00,0.00,2
-0.13,0.13,-1.22,1.89,5.49,2.44,0.00,0.00,0.00,0.00,2
-0.13,0.16,-1.25,2.81,-0.85,-9.52,0.00,0.00,0.00,0.00,2
-0.13,0.12,-1.24,2.81,-2.38,3.60,0.00,0.00,0.00,0.00,2
-0.15,0.15,-1.24,2.50,-0.67,-1.83,0.00,0.00,0.00,0.00,2
-0.07,0.08,-1.25,0.98,1.77,10.56,0.00,0.00,0.00,0.00,2
-0.17,0.10,-1.22,4.82,3.66,0.79,0.00,0.00,0.00,0.00,2
-0.14,0.12,-1.23,2.81,-4.27,-2.56,0.00,0.00,0.00,0.00,2
-0.18,0.12,-1.21,0.00,2.08,-0.85,0.00,0.00,0.00,0.00,2
-0.14,0.12,-1.21,0.92,5.49,0.06,0.00,0.00,0.00,0.00,2
-0.15,0.10,-1.22,2.38,-1.71,-1.71,0.00,0.00,0.00,0.00,2
-0.22,0.07,-1.19,2.38,-1.46,-7.75,0.00,0.00,0.00,0.00,2
-0.16,0.07,-1.23,5.49,0.24,-2.14,0.00,0.00,0.00,0.00,2
-0.16,0.09,-1.23,3.60,-0.43,-1.04,0.00,0.00,0.00,0.00,2
-0.14,0.10,-1.24,3.42,-3.11,-2.20,0.00,0.00,0.00,0.00,2
-0.10,0.09,-1.25,-2.50,-1.59,-3.36,0.00,0.00,0.00,0.00,2
-0.04,0.12,-1.25,24.72,7.51,-5.37,0.00,0.00,0.00,0.00,2
-0.13,0.10,-1.26,-5.80,-13.67,4.94,0.00,0.00,0.05,0.00,2
-0.11,0.10,-1.21,3.48,6.71,-6.16,0.00,0.00,0.06,0.00,2
-0.09,0.12,-1.29,-1.16,-5.62,-13.43,0.00,0.00,0.00,0.00,2
-0.08,0.09,-1.23,4.82,1.89,9.64,0.00,0.00,0.00,0.00,2
-0.17,0.15,-1.30,-0.98,15.63,-4.64,0.00,0.00,0.06,0.00,2
-0.10,0.10,-1.23,6.29,1.04,-4.64,0.00,0.00,0.05,0.00,2
-0.09,0.13,-1.23,5.07,-0.85,1.46,0.00,0.00,0.04,0.00,2
-0.06,0.10,-1.23,3.42,-10.01,0.92,0.00,0.00,0.06,0.00,2
-0.11,0.13,-1.22,4.09,-0.92,-4.58,0.00,0.00,0.00,0.00,2
-0.06,0.13,-1.25,0.18,-4.94,-6.10,0.00,0.00,0.04,0.00,2
-0.25,-0.08,-1.20,-11.78,18.92,23.80,0.00,0.00,0.00,0.00,2
-0.26,-0.14,-1.18,8.06,0.79,-4.09,0.00,0.00,0.00,0.00,2
-0.21,-0.16,-1.20,2.26,-0.73,-5.49,0.00,0.00,0.00,0.00,2
-0.22,-0.18,-1.27,-2.08,6.90,-3.48,0.00,0.00,0.00,0.00,2
-0.23,-0.14,-1.21,5.92,2.69,-0.24,0.00,0.00,0.00,0.00,2
-0.25,-0.08,-1.19,5.98,5.92,-5.80,0.00,0.00,0.00,0.00,2
-0.21,-0.13,-1.23,2.14,4.70,1.10,0.00,0.00,0.00,0.00,2
-0.22,-0.11,-1.25,6.35,3.36,-6.71,0.00,0.00,0.00,0.00,2
-0.23,-0.07,-1.23,3.72,-2.08,-4.58,0.00,0.00,0.00,0.00,2
-0.23,-0.06,-1.22,2.32,-1.34,-0.73,0.00,0.00,0.00,0.00,2
-0.21,-0.07,-1.22,2.50,-1.28,0.00,0.00,0.00,0.00,0.00,2
-0.23,-0.07,-1.23,2.93,0.37,-0.37,0.00,0.00,0.00,0.00,2
-0.22,-0.07,-1.22,3.36,0.55,-0.55,0.00,0.00,0.00,0.00,2
-0.22,-0.07,-1.22,2.44,-0.43,-1.46,0.00,0.00,0.00,0.00,2
-0.21,-0.06,-1.24,2.75,-0.92,-0.31,0.00,0.00,0.00,0.00,2
-0.22,-0.06,-1.22,3.97,0.37,-0.67,0.00,0.00,0.00,0.00,2
-0.21,-0.06,-1.22,2.81,-0.98,-0.18,0.00,0.00,0.00,0.00,2
-0.17,-0.07,-1.23,3.11,-6.77,-3.78,0.00,0.00,0.00,0.00,2
-0.14,-0.08,-1.21,2.56,-0.92,-0.55,0.00,0.00,0.00,0.00,2
-0.19,-0.04,-1.23,3.91,2.50,-0.06,0.00,0.00,0.00,0.00,2
-0.15,-0.06,-1.23,2.81,-0.12,0.37,0.00,0.00,0.00,0.00,2
-0.15,-0.06,-1.24,3.11,0.79,-0.12,0.00,0.00,0.00,0.00,2
-0.15,-0.06,-1.22,2.08,-0.55,-0.18,0.00,0.00,0.00,0.00,2
-0.16,-0.06,-1.20,1.89,-1.83,5.19,0.00,0.00,0.00,0.00,2
-0.08,-0.06,-1.25,3.42,-7.08,-4.76,0.00,0.00,0.00,0.00,2
-0.09,-0.05,-1.20,6.90,11.96,-1.71,0.00,0.00,0.00,0.00,2
-0.21,-0.06,-1.22,-6.53,19.04,14.16,0.00,0.00,0.00,0.00,2
-0.29,0.03,-1.23,16.66,-1.10,-5.92,0.00,0.00,0.00,0.00,2
-0.33,0.21,-1.17,21.48,-20.08,-5.98,0.00,0.00,0.00,0.00,2
-0.11,0.24,-1.22,1.04,3.36,1.10,0.00,0.00,0.00,0.00,2
-0.08,0.22,-1.22,11.60,3.11,-5.68,0.00,0.00,0.00,0.00,2
-0.08,0.23,-1.22,2.01,-0.61,-2.32,0.00,0.00,0.00,0.00,2
-0.11,0.23,-1.20,2.69,-0.12,-1.71,0.00,0.00,0.00,0.00,2
-0.09,0.23,-1.19,-4.58,-4.52,2.50,0.00,0.00,0.00,0.00,2
-0.11,0.26,-1.21,2.14,2.50,6.47,0.05,0.00,0.00,0.00,2
-0.12,0.26,-1.22,0.18,0.79,1.10,0.00,0.00,0.00,0.00,2
-0.10,0.24,-1.21,1.95,2.87,0.98,0.00,0.00,0.00,0.00,2
-0.11,0.26,-1.20,3.30,-1.40,-1.16,0.00,0.00,0.00,0.00,2
-0.09,0.23,-1.20,3.78,-5.92,-2.32,0.00,0.00,0.00,0.00,2
-0.04,0.22,-1.22,2.38,0.12,1.95,0.07,0.00,0.00,0.00,2
-0.08,0.26,-1.20,2.93,-4.58,-6.53,0.00,0.00,0.00,0.00,2
-0.05,0.28,-1.20,1.53,1.46,-0.43,0.10,0.00,0.00,0.00,2
-0.06,0.26,-1.24,0.98,2.01,4.03,0.00,0.00,0.00,0.00,2
-0.03,0.23,-1.22,1.28,-5.37,8.79,0.00,0.00,0.00,0.00,2
-0.14,0.25,-1.21,2.99,4.27,4.58,0.00,0.00,0.61,0.00,2
-0.11,0.24,-1.21,-1.95,-7.75,-9.77,0.00,0.00,0.29,0.00,2
-0.07,0.21,-1.24,-1.89,0.06,3.48,0.00,0.00,0.00,0.00,2
-0.17,0.18,-1.19,-2.32,5.74,7.81,1.07,0.00,0.00,0.00,2
-0.21,0.15,-1.22,5.37,-0.67,0.12,0.42,0.00,0.00,0.00,2
-0.11,0.17,-1.23,8.36,-8.30,-8.24,0.00,0.00,0.00,0.00,2
-0.10,0.18,-1.23,4.46,2.20,4.27,0.00,0.00,0.00,0.00,2
-0.20,0.09,-1.20,-2.62,-15.87,2.44,0.00,0.00,0.00,0.00,2
-0.16,0.26,-1.26,-4.58,13.73,-10.93,0.00,0.00,0.00,0.00,2
-0.13,0.14,-1.21,0.31,5.86,-4.52,0.00,0.00,0.00,0.00,2
-0.11,0.14,-1.23,5.19,0.18,-1.71,0.00,0.00,0.00,0.00,2
-0.12,0.16,-1.22,2.38,1.53,4.33,0.00,0.00,0.00,0.00,2
-0.15,0.13,-1.24,7.51,-6.41,-16.24,0.00,0.00,0.00,0.00,2
-0.14,0.01,-1.30,-22.89,13.43,40.47,0.00,0.00,0.00,0.00,2
-0.09,-0.33,-1.19,-1.89,0.18,2.01,0.00,0.00,0.00,0.00,2
-0.09,-0.41,-1.13,-8.24,-4.15,-1.16,0.00,0.00,0.00,0.00,2
-0.02,-0.57,-1.03,-1.40,-5.86,0.12,0.00,0.00,0.00,0.00,2
0.03,-0.61,-1.02,-0.98,0.92,-1.53,0.00,0.00,0.00,0.00,2
-0.20,-0.26,-1.21,24.96,21.06,3.54,0.00,0.00,0.00,0.00,2
-0.47,0.02,-1.15,2.08,4.70,4.33,0.00,0.00,0.00,0.00,2
-0.55,0.07,-1.10,-1.83,-0.61,-3.85,0.00,0.00,0.00,0.00,2
-0.41,-0.02,-1.14,20.81,18.07,2.14,2.93,0.00,0.19,0.00,2
-0.62,0.18,-1.00,11.54,8.00,-1.59,2.11,0.00,0.08,0.00,2
-0.63,0.13,-1.00,-5.37,-3.60,-2.20,0.14,0.00,0.11,0.00,2
-0.72,0.21,-0.87,1.71,20.45,-12.88,0.57,0.00,0.11,0.00,2
-0.74,0.30,-0.86,0.98,-5.19,-3.36,0.18,0.00,0.16,0.00,2
-0.71,0.31,-0.89,-5.98,-12.94,-7.57,0.00,0.00,0.17,0.00,2
-0.64,0.32,-0.95,2.69,-7.57,1.83,0.49,0.00,0.19,0.00,2
-0.18,0.11,-1.23,2.81,-0.24,-1.95,1.18,0.00,0.00,0.00,2
-0.18,0.13,-1.23,3.72,0.79,-8.12,1.02,0.00,0.00,0.00,2
-0.15,0.12,-1.23,0.79,-1.34,2.87,1.32,0.00,0.00,0.00,2
-0.17,0.12,-1.23,3.85,1.34,0.12,1.62,0.00,0.00,0.00,2
-0.18,0.12,-1.22,4.46,0.55,-0.55,1.40,0.00,0.00,0.00,2
-0.17,0.14,-1.21,2.50,-0.18,-2.75,1.33,0.00,0.00,0.00,2
-0.14,0.13,-1.22,-0.55,-2.38,1.77,0.00,0.00,0.00,0.00,2
-0.17,0.13,-1.22,1.83,1.46,9.16,1.40,0.00,0.00,0.00,2
-0.17,0.15,-1.23,4.88,-3.17,-3.78,1.34,0.00,0.00,0.00,2
-0.18,0.16,-1.23,1.71,-0.18,3.60,0.06,0.00,0.00,0.00,2
-0.17,0.15,-1.24,3.97,-1.04,2.20,0.93,0.00,0.00,0.00,2
-0.17,0.14,-1.22,3.66,0.49,-1.65,0.98,0.00,0.00,0.00,2
-0.16,0.15,-1.23,2.99,-2.38,-2.56,1.07,0.00,0.00,0.00,2
-0.13,0.16,-1.22,5.98,-5.00,-1.28,1.25,0.00,0.00,0.00,2
-0.12,0.19,-1.25,3.23,5.62,-2.08,1.30,0.00,0.00,0.00,2
0.09,0.03,-1.22,-46.88,-30.76,-1.28,0.00,0.00,0.00,0.00,2
0.09,-0.16,-1.21,-15.93,-19.47,-14.47,0.00,0.00,0.00,0.00,2
0.15,-0.16,-1.21,2.08,10.31,2.08,0.00,0.00,0.00,0.00,2
0.13,-0.16,-1.20,2.93,1.22,-0.49,0.00,0.00,0.00,0.00,2
0.16,-0.16,-1.18,7.20,3.36,-3.17,0.00,0.00,0.00,0.00,2
0.15,-0.17,-1.20,0.43,-0.06,1.89,0.00,0.00,0.00,0.00,2
0.11,-0.11,-1.23,3.97,-0.37,-0.18,0.00,0.00,0.00,0.00,2
0.12,-0.10,-1.23,4.15,-12.45,-7.26,0.00,0.00,0.00,0.00,2
0.13,-0.16,-1.20,-1.04,0.49,-2.50,0.00,0.00,0.00,0.00,2
-0.02,-0.17,-1.24,-5.19,-2.69,9.58,0.93,0.00,0.00,0.00,2
-0.01,-0.12,-1.23,9.28,-5.43,-6.65,0.73,0.00,0.00,0.00,2
0.02,-0.08,-1.24,0.24,11.78,3.91,0.00,0.00,0.00,0.00,2
-0.06,-0.22,-1.03,8.48,9.52,5.55,0.00,0.00,0.00,0.00,2
-0.02,0.02,-1.22,-21.61,-16.48,-10.44,0.00,0.00,0.00,0.00,2
-0.12,-0.06,-1.22,-5.37,32.35,15.20,0.00,0.00,0.00,0.00,2
0.02,-0.16,-1.30,10.07,-28.56,12.39,0.00,0.00,0.00,0.00,2
0.02,-0.09,-1.26,7.26,5.19,0.92,0.00,0.00,0.00,0.00,2
-0.15,0.02,-1.24,-13.18,-30.46,-10.01,0.00,0.00,0.00,0.00,2
-0.08,-0.07,-1.25,-7.39,-1.95,-3.91,0.00,0.00,0.00,0.00,2
-0.09,-0.10,-1.25,9.70,4.94,-0.79,0.00,0.00,0.00,0.00,2
-0.02,0.07,-1.24,17.94,-3.36,1.22,0.00,0.00,0.00,0.00,2
0.02,0.22,-1.25,18.43,28.32,23.19,0.00,0.00,0.00,0.00,2
-0.29,0.10,-1.22,-10.99,4.58,4.39,0.00,0.00,0.00,0.00,2
-0.27,-0.23,-1.17,-30.46,-8.85,3.78,0.00,0.00,0.00,0.00,2
-0.18,-0.47,-1.09,-33.02,-9.52,4.21,0.00,0.00,0.00,0.00,2
-0.11,-0.69,-0.93,-2.20,-5.19,1.77,0.00,0.00,0.00,0.00,2
-0.12,-0.75,-0.93,-10.93,-3.30,-0.12,0.00,0.00,0.00,0.00,2
0.01,-0.87,-0.82,-4.09,-19.23,17.70,0.00,0.00,0.00,0.00,2
0.19,-0.76,-0.78,19.04,-14.34,23.62,0.00,0.00,0.00,0.00,2
0.14,-0.19,-1.28,88.01,27.22,6.10,0.00,0.00,0.00,0.00,2
-0.03,0.08,-1.24,21.30,27.47,5.00,0.00,0.00,0.00,0.00,2
-0.30,0.07,-1.20,-79.83,-15.20,10.68,0.00,0.00,0.00,0.00,2
0.09,-0.53,-1.10,-25.33,-23.93,-7.81,0.10,0.00,0.16,0.00,2
0.06,-0.60,-1.11,-0.37,-0.49,-7.75,0.00,0.00,0.30,0.00,2
0.09,-0.71,-0.85,-42.91,-17.27,19.71,0.71,0.00,0.18,0.00,2
-0.40,-0.43,-1.18,75.50,88.50,-40.04,0.00,0.00,0.00,0.00,2
-0.28,-0.43,-1.14,-44.07,-58.23,31.13,0.00,0.00,0.00,0.00,2
0.33,-0.70,-0.79,0.49,-5.92,6.04,0.00,0.00,0.00,0.00,2
0.25,-0.65,-0.92,7.81,3.97,-1.65,0.00,0.00,0.00,0.00,2
0.48,-0.67,-0.78,-1.95,-18.25,9.83,0.00,0.00,0.00,0.00,2
0.35,-0.65,-0.82,0.24,-26.12,1.53,0.00,0.00,0.00,0.00,2
0.45,-0.65,-0.76,7.57,24.72,-6.29,0.00,0.00,0.00,0.00,2
0.48,-0.60,-0.88,-8.12,-5.25,11.54,0.00,0.00,0.00,0.00,2
0.50,-0.57,-0.84,10.80,-1.46,-4.27,0.00,0.00,0.00,0.00,2
0.55,-0.57,-0.77,37.90,33.81,-17.27,0.00,0.00,0.00,0.00,2
0.53,-0.56,-0.87,12.27,37.29,-24.54,0.00,0.00,0.00,0.00,2
0.07,-0.38,-1.14,-8.12,-6.77,9.77,0.00,0.00,0.00,0.00,2
0.04,-0.37,-1.15,9.64,6.41,7.45,0.00,0.00,0.00,0.00,2
0.04,-0.34,-1.18,8.54,-4.33,-6.77,0.00,0.00,0.00,0.00,2
0.10,-0.36,-1.15,3.11,-3.78,-4.82,0.00,0.00,0.00,0.00,2
0.14,-0.36,-1.21,0.00,-4.76,-9.58,0.00,0.00,0.00,0.00,2
0.10,-0.42,-1.14,-6.10,6.35,3.97,0.00,0.00,0.00,0.00,2
0.11,-0.36,-1.15,28.69,5.92,-13.67,0.00,0.00,0.00,0.00,2
0.07,-0.25,-1.21,-3.48,13.37,8.79,0.00,0.00,0.00,0.00,2
0.00,-0.39,-1.13,0.85,6.41,4.27,0.00,0.00,0.00,0.00,2
0.06,-0.35,-1.17,9.40,-4.88,-2.32,0.00,0.00,0.00,0.00,2
0.07,-0.35,-1.18,10.50,-7.14,-9.34,0.00,0.00,0.00,0.00,2
0.07,-0.35,-1.14,0.85,-3.72,2.99,0.00,0.00,0.00,0.00,2
0.05,-0.37,-1.16,-2.20,9.58,2.01,0.00,0.00,0.34,0.00,2
0.03,-0.39,-1.17,4.27,-9.03,-1.04,0.00,0.00,0.41,0.00,2
0.11,-0.30,-1.19,7.51,-3.11,-1.59,0.00,0.00,0.00,0.00,2
-0.02,-0.36,-1.18,-8.12,6.16,6.23,0.00,0.00,0.00,0.00,2
0.01,-0.38,-1.17,4.03,-2.69,-5.37,0.00,0.00,0.00,0.00,2
0.02,-0.36,-1.15,17.27,-14.71,-7.08,0.00,0.00,0.00,0.00,2
0.06,-0.25,-1.23,10.68,-6.04,-8.30,0.00,0.00,0.00,0.00,2
0.02,-0.25,-1.21,0.37,-0.06,4.64,0.00,0.00,0.00,0.12,2
-0.01,-0.35,-1.16,12.39,-1.65,11.72,0.00,0.00,0.00,0.98,2
-0.02,-0.28,-1.22,5.92,-3.85,-3.48,0.00,0.00,0.00,0.94,2
-0.07,-0.21,-1.21,12.21,5.43,-8.24,0.00,0.00,0.00,0.00,2
-0.20,-0.17,-1.16,-1.40,14.83,23.38,0.00,0.00,0.00,0.00,2
-0.17,-0.04,-1.15,21.24,-15.56,-26.67,0.00,0.00,0.00,0.00,2
0.02,-0.02,-1.22,-10.80,14.28,3.11,0.00,0.00,0.00,0.00,2
-0.05,0.04,-1.25,-2.87,10.38,2.01,0.00,0.00,0.00,0.00,2
-0.26,-0.04,-1.16,-7.14,38.45,25.33,0.00,0.00,0.00,0.00,2
-0.27,-0.06,-1.17,6.65,-1.46,-0.67,0.00,0.00,0.00,0.00,2
-0.10,0.12,-1.25,6.53,-1.34,-3.78,0.00,0.00,0.00,0.00,2
-0.07,0.14,-1.20,5.43,-3.97,-13.79,0.00,0.00,0.00,0.00,2
-0.12,0.03,-1.21,-43.46,-1.40,-3.36,0.00,0.00,0.00,0.00,2
-0.08,-0.02,-1.25,2.62,-5.19,3.48,0.00,0.00,0.00,0.00,2
-0.05,-0.15,-1.04,4.58,7.02,10.25,0.00,0.00,0.00,0.00,2
-0.03,-0.08,-1.21,0.00,20.75,3.72,0.00,0.00,0.00,0.00,2
-0.10,-0.09,-1.24,5.43,5.55,2.08,0.00,0.00,0.00,0.00,2
-0.17,-0.08,-1.24,-7.81,-6.65,3.97,0.00,0.00,0.00,0.00,2
-0.09,-0.05,-1.24,0.79,3.17,1.22,0.00,0.00,0.00,0.50,2
-0.10,-0.05,-1.24,1.53,-3.54,0.92,0.00,0.00,0.00,0.59,2
-0.10,-0.07,-1.23,2.08,6.47,2.69,0.00,0.00,0.00,0.00,2
-0.10,-0.03,-1.23,-0.12,7.51,-3.78,0.49,0.00,0.00,0.00,2
-0.13,-0.02,-1.23,2.75,-0.12,0.06,0.64,0.00,0.00,0.00,2
-0.10,-0.04,-1.28,-1.40,-2.62,0.55,0.00,0.00,0.00,0.00,2
-0.08,-0.05,-1.23,5.07,-4.21,0.31,0.00,0.00,0.00,0.00,2
-0.11,-0.04,-1.25,1.53,-1.65,1.22,0.00,0.00,0.00,0.00,2
-0.10,-0.09,-1.25,2.26,0.12,3.91,0.00,0.00,0.00,0.00,2
-0.14,-0.04,-1.23,4.39,4.21,2.87,0.00,0.00,0.16,0.00,2
-0.11,-0.04,-1.23,4.09,0.73,0.31,0.00,0.00,0.34,0.00,2
-0.08,-0.03,-1.24,0.79,-3.91,-6.04,0.00,0.00,0.00,0.00,2
-0.04,-0.03,-1.27,-3.85,-4.94,8.54,0.00,0.00,0.00,0.00,2
-0.04,-0.10,-1.31,7.57,-5.49,-7.32,0.00,0.00,0.00,0.00,2
-0.11,-0.10,-1.27,4.39,28.38,-9.16,0.00,0.00,0.00,0.00,2
-0.16,-0.47,-1.11,-20.69,9.46,14.10,0.00,0.00,0.00,0.00,2
-0.17,-0.57,-1.05,0.00,-2.62,-0.31,0.00,0.00,0.00,0.00,2
-0.16,-0.55,-1.05,21.55,-2.01,-15.93,0.00,0.00,0.00,0.00,2
-0.11,-0.05,-1.08,31.86,-15.01,-121.34,0.00,0.00,0.00,0.00,2
-0.34,-0.00,-1.27,-6.29,12.51,-107.73,0.00,0.00,0.00,0.00,2
-0.07,-0.15,-1.24,0.73,0.55,0.85,0.00,0.00,0.07,0.00,2
-0.07,-0.18,-1.24,-0.24,-0.18,-5.43,0.00,0.00,0.06,0.00,2
-0.08,-0.18,-1.26,4.58,0.98,-0.37,0.00,0.00,0.07,0.00,2
-0.06,-0.15,-1.22,0.85,0.31,-0.98,0.00,0.00,0.07,0.73,2
-0.06,-0.15,-1.25,3.23,0.37,0.12,0.00,0.00,0.07,0.75,2
-0.04,-0.18,-1.25,4.27,3.78,-1.77,0.00,0.00,0.07,0.00,2
-0.06,-0.20,-1.22,2.32,3.85,-3.54,0.00,0.00,0.06,0.00,2
-0.05,-0.18,-1.20,5.07,1.28,-1.53,0.00,0.00,0.06,0.00,2
-0.06,-0.18,-1.21,6.10,-1.65,0.55,0.00,0.00,0.07,0.00,2
-0.05,-0.17,-1.23,7.32,0.55,0.06,0.00,0.00,0.07,0.00,2
-0.05,-0.20,-1.23,1.40,0.98,0.43,0.00,0.00,0.06,0.00,2
-0.04,-0.19,-1.28,-2.62,-8.12,5.37,0.00,0.00,0.07,0.00,2
-0.05,-0.19,-1.22,0.12,-0.85,-2.20,1.15,0.00,0.00,0.00,2
-0.04,-0.22,-1.22,4.39,1.59,-0.37,1.32,0.00,0.00,0.00,2
-0.04,-0.21,-1.21,6.29,0.79,0.49,0.00,0.00,0.07,0.00,2
-0.04,-0.21,-1.22,4.39,-1.71,0.55,0.00,0.00,0.39,0.00,2
-0.05,-0.23,-1.23,2.50,0.67,-1.59,0.00,0.00,0.50,0.00,2
-0.02,-0.21,-1.20,2.01,-0.06,-1.83,0.00,0.00,0.07,0.00,2
-0.04,-0.22,-1.21,2.20,0.61,-2.69,0.00,0.00,0.08,0.00,2
-0.04,-0.23,-1.20,3.36,0.98,0.06,0.00,0.00,0.08,0.00,2
-0.04,-0.24,-1.21,3.48,1.95,-1.59,0.00,0.00,0.08,0.00,2
-0.03,-0.24,-1.20,1.65,-2.62,-0.61,0.00,0.00,0.08,0.00,2
-0.01,-0.16,-1.24,4.03,0.79,1.34,0.00,0.00,0.09,0.00,2
-0.01,-0.20,-1.22,-2.01,-3.91,0.55,0.00,0.00,0.07,0.00,2
0.02,-0.29,-1.20,-9.70,-14.83,-2.14,0.00,0.00,0.07,0.00,2
0.06,-0.12,-1.19,36.07,3.72,8.06,0.00,0.00,0.07,0.00,2
0.04,-0.25,-1.17,-17.82,5.68,14.16,0.00,0.00,0.07,0.00,2
0.01,-0.55,-1.17,3.23,6.84,-11.05,0.00,0.00,0.07,0.00,2
-0.02,-0.50,-1.11,-15.75,-14.10,-15.26,0.00,0.00,0.08,0.00,2
0.08,-0.36,-1.18,1.04,5.55,5.19,0.00,0.00,0.07,0.00,2
-0.11,-0.19,-1.14,-21.67,-28.44,10.56,0.00,0.00,0.07,0.00,2
-0.27,0.10,-1.22,3.30,0.00,-0.85,0.00,0.00,0.00,0.00,2
-0.27,0.09,-1.21,2.38,0.06,-0.43,0.00,0.00,0.00,0.00,2
-0.27,0.10,-1.23,3.60,0.24,-0.98,0.00,0.00,0.00,0.00,2
-0.26,0.09,-1.22,4.46,-0.37,-1.77,0.00,0.00,0.00,0.00,2
-0.25,0.09,-1.20,5.98,0.73,-1.40,0.00,0.00,0.00,0.00,2
-0.25,0.07,-1.19,3.66,0.18,-0.18,0.00,0.00,0.00,0.00,2
-0.25,0.08,-1.22,2.44,0.06,-0.55,0.00,0.00,0.00,0.00,2
-0.25,0.09,-1.21,4.70,0.06,-1.28,0.00,0.00,0.59,0.00,2
-0.25,0.09,-1.22,1.77,-0.43,-0.18,0.00,0.00,0.70,0.00,2
-0.25,0.09,-1.21,0.49,-0.24,-0.37,0.00,0.00,0.67,0.00,2
-0.24,0.10,-1.24,0.92,0.18,-0.43,0.80,0.00,0.00,0.00,2
-0.24,0.09,-1.22,2.75,-0.24,-0.98,1.02,0.00,0.00,0.00,2
-0.24,0.07,-1.23,-0.24,-0.79,-0.37,0.91,0.00,0.00,0.00,2
-0.24,0.07,-1.21,0.98,-0.37,0.49,0.00,0.00,0.00,0.56,2
-0.25,0.07,-1.22,0.98,-0.18,-0.43,0.00,0.00,0.00,0.96,2
-0.27,0.04,-1.20,-0.85,-2.75,0.37,0.00,0.00,0.00,0.00,2
-0.25,0.07,-1.25,2.81,-0.43,-1.04,0.00,0.00,0.00,0.00,2
-0.24,0.07,-1.21,10.93,2.75,-1.34,0.00,0.00,0.00,0.00,2
-0.24,0.06,-1.25,5.13,0.73,-0.98,0.00,0.00,0.00,0.00,2
-0.23,0.07,-1.22,3.30,0.00,-0.55,0.00,0.00,0.00,0.00,2
-0.23,0.08,-1.24,-0.92,-0.92,0.24,0.00,0.00,0.00,0.00,2
-0.24,0.07,-1.22,2.14,-0.12,-0.79,0.00,0.00,0.00,0.00,2
-0.23,0.07,-1.22,2.26,-0.37,-0.67,0.00,0.00,0.00,0.00,2
-0.23,0.08,-1.25,2.20,-1.83,-0.24,0.00,0.00,0.00,0.00,2
-0.24,0.09,-1.22,3.48,0.37,-1.16,0.00,0.00,0.00,0.00,2
-0.23,0.08,-1.22,1.71,0.06,-0.37,0.00,0.00,0.00,0.00,2
-0.23,0.09,-1.23,3.30,-0.31,-0.92,0.00,0.00,0.00,0.00,2
-0.24,0.07,-1.21,2.93,0.00,-0.55,0.00,0.00,0.00,0.00,2
-0.25,0.07,-1.23,4.64,0.00,-0.85,0.00,0.00,0.00,0.00,2
-0.23,0.08,-1.21,8.91,2.14,-0.61,0.00,0.00,0.00,0.00,2
-0.24,0.08,-1.31,-23.74,-14.28,-10.93,0.00,0.00,0.00,0.00,2
-0.19,0.09,-1.22,25.02,6.77,-2.08,0.00,0.00,0.00,0.00,2
-0.20,0.11,-1.23,5.25,0.00,-1.53,0.00,0.00,0.00,0.00,2
-0.22,0.09,-1.22,2.44,0.24,-0.55,0.00,0.00,0.05,0.00,2
-0.20,0.09,-1.22,5.62,-0.85,-1.22,0.00,0.00,0.06,0.00,2
-0.11,0.08,-1.27,20.39,4.70,0.37,0.00,0.00,0.00,0.00,2
-0.16,0.13,-1.29,-26.73,3.05,19.90,0.00,0.00,0.00,0.00,2
-0.08,0.17,-1.27,4.03,3.54,2.62,0.00,0.00,0.00,0.00,2
-0.10,0.13,-1.23,1.83,-0.06,-0.43,0.00,0.00,0.00,0.00,2
-0.10,0.13,-1.24,3.30,0.12,-0.55,0.00,0.00,0.00,0.00,2
-0.11,0.20,-1.22,4.82,-0.31,1.04,0.00,0.00,0.00,0.00,2
-0.11,0.19,-1.22,3.30,-0.24,-0.73,0.00,0.00,0.00,0.00,2
-0.11,0.19,-1.22,3.11,-0.31,-0.67,0.00,0.00,0.00,0.00,2
-0.11,0.18,-1.22,3.17,-0.06,-0.73,0.00,0.00,0.00,0.00,2
-0.11,0.19,-1.23,3.54,0.31,-0.67,0.00,0.00,0.00,0.00,2
-0.11,0.19,-1.22,3.17,-0.12,-0.79,0.00,0.00,0.00,0.00,2
-0.11,0.19,-1.22,3.17,0.12,-0.73,0.00,0.00,0.00,0.00,2
-0.11,0.20,-1.22,3.05,0.00,-0.85,0.00,0.00,0.00,0.00,2
-0.11,0.19,-1.23,2.56,0.06,-0.55,0.00,0.00,0.00,0.00,2
-0.11,0.19,-1.23,3.11,0.12,-0.43,0.00,0.00,0.00,0.00,2
-0.11,0.20,-1.23,2.99,0.06,-0.67,0.00,0.00,0.00,0.00,2
-0.11,0.19,-1.22,3.48,-0.31,-0.79,0.00,0.00,0.00,0.00,2
-0.10,0.19,-1.23,2.87,0.00,-0.67,0.00,0.00,0.00,0.00,2
-0.11,0.19,-1.22,2.93,0.24,-0.67,0.00,0.00,0.00,0.00,2
-0.11,0.19,-1.23,2.87,0.12,-0.55,0.00,0.00,0.00,0.00,2
-0.11,0.19,-1.23,3.11,0.06,-1.04,0.00,0.00,0.00,0.00,2
-0.11,0.19,-1.23,2.56,-0.06,-0.61,0.00,0.00,0.00,0.00,2
-0.11,0.19,-1.23,2.93,0.06,-0.43,0.00,0.00,0.00,0.00,2
-0.11,0.19,-1.22,2.56,0.00,-0.79,0.00,0.00,0.00,0.00,2
-0.11,0.19,-1.23,2.69,0.06,-0.43,0.00,0.00,0.00,0.00,2
-0.11,0.19,-1.22,2.87,-0.24,-0.79,0.00,0.00,0.00,0.00,2
-0.11,0.19,-1.22,2.81,0.12,-0.67,0.00,0.00,0.00,0.00,2
-0.11,0.19,-1.23,2.56,-0.18,-0.67,0.00,0.00,0.00,0.00,2
-0.11,0.20,-1.23,2.81,-0.18,-0.85,0.00,0.00,0.00,0.00,2
-0.12,0.19,-1.23,3.05,-0.12,-0.85,0.00,0.00,0.00,0.00,2
-0.11,0.19,-1.22,3.54,0.06,-0.79,0.00,0.00,0.00,0.00,2
-0.11,0.19,-1.23,2.56,0.00,-0.85,0.00,0.00,0.00,0.00,2
-0.11,0.19,-1.22,2.75,0.12,-0.43,0.00,0.00,0.00,0.00,2
-0.11,0.19,-1.22,2.75,0.06,-0.55,0.00,0.00,0.00,0.00,2
-0.11,0.19,-1.23,2.99,0.37,-0.55,0.00,0.00,0.00,0.00,2
-0.11,0.19,-1.22,3.48,-0.06,-0.85,0.00,0.00,0.00,0.00,2
-0.11,0.19,-1.23,2.99,-0.06,-0.73,0.00,0.00,0.00,0.00,2
-0.11,0.19,-1.22,2.69,0.12,-0.43,0.00,0.00,0.00,0.00,2
-0.11,0.19,-1.22,2.69,0.06,-0.79,0.00,0.00,0.00,0.00,2
-0.10,0.20,-1.23,3.17,0.06,-0.73,0.00,0.00,0.00,0.00,2
-0.11,0.19,-1.23,2.81,0.06,-0.43,0.00,0.00,0.00,0.00,2
-0.11,0.19,-1.23,2.62,0.18,-0.61,0.00,0.00,0.00,0.00,2
-0.11,0.19,-1.24,2.56,0.06,-0.61,0.00,0.00,0.00,0.00,2
-0.11,0.19,-1.23,2.81,0.06,-0.73,0.00,0.00,0.00,0.00,2
-0.12,0.19,-1.23,2.99,-0.43,-0.85,0.00,0.00,0.00,0.00,2
-0.11,0.19,-1.23,3.17,0.06,-0.67,0.00,0.00,0.00,0.00,2
-0.11,0.19,-1.22,2.93,0.06,-0.85,0.00,0.00,0.00,0.00,2
-0.11,0.19,-1.22,3.11,0.00,-0.98,0.00,0.00,0.00,0.00,2
-0.11,0.19,-1.22,2.87,0.18,-0.55,0.00,0.00,0.00,0.00,2
-0.11,0.19,-1.22,3.30,0.06,-0.85,0.00,0.00,0.00,0.00,2
-0.11,0.19,-1.22,3.11,0.12,-0.79,0.00,0.00,0.00,0.00,2
-0.11,0.19,-1.22,2.99,0.18,-0.67,0.00,0.00,0.00,0.00,2
-0.11,0.19,-1.22,2.93,0.00,-0.67,0.00,0.00,0.00,0.00,2
-0.10,0.19,-1.22,2.50,0.18,-0.79,0.00,0.00,0.00,0.00,2
-0.11,0.19,-1.22,2.87,0.06,-0.49,0.00,0.00,0.00,0.00,2
-0.11,0.19,-1.22,3.05,0.06,-0.73,0.00,0.00,0.00,0.00,2
-0.11,0.20,-1.23,3.42,0.06,-0.49,0.00,0.00,0.00,0.00,2
-0.11,0.19,-1.22,2.87,0.06,-0.85,0.00,0.00,0.00,0.00,2
-0.11,0.19,-1.22,3.05,0.00,-0.67,0.00,0.00,0.00,0.00,2
-0.11,0.19,-1.22,2.87,0.00,-0.61,0.00,0.00,0.00,0.00,2
-0.11,0.20,-1.22,2.62,0.18,-0.55,0.00,0.00,0.00,0.00,2
-0.11,0.19,-1.22,2.75,-0.06,-0.67,0.00,0.00,0.00,0.00,2
-0.11,0.19,-1.23,2.38,0.18,-0.61,0.00,0.00,0.00,0.00,2
-0.11,0.20,-1.23,2.81,0.24,-0.79,0.00,0.00,0.00,0.00,2
-0.11,0.19,-1.24,2.69,-0.06,-0.98,0.00,0.00,0.00,0.00,2
-0.11,0.19,-1.23,2.69,-0.06,-0.43,0.00,0.00,0.00,0.00,2
-0.11,0.19,-1.23,3.17,0.31,-0.49,0.00,0.00,0.00,0.00,2
-0.12,0.18,-1.22,2.99,-0.67,-0.85,0.00,0.00,0.00,0.00,2
-0.11,0.19,-1.23,3.11,0.00,-0.55,0.00,0.00,0.00,0.00,2
-0.11,0.19,-1.23,2.75,0.12,-0.73,0.00,0.00,0.00,0.00,2
-0.11,0.19,-1.22,2.87,0.55,-0.67,0.00,0.00,0.00,0.00,2
-0.10,0.20,-1.22,3.11,0.24,-0.73,0.00,0.00,0.00,0.00,2
-0.11,0.19,-1.22,2.56,-0.06,-0.67,0.00,0.00,0.00,0.00,2
-0.11,0.19,-1.22,2.87,-0.06,-0.67,0.00,0.00,0.00,0.00,2
-0.12,0.19,-1.23,2.99,0.00,-0.79,0.00,0.00,0.00,0.00,2
-0.11,0.19,-1.23,3.11,-0.06,-0.61,0.00,0.00,0.00,0.00,2
-0.11,0.19,-1.23,2.93,-0.24,-0.92,0.00,0.00,0.00,0.00,2
-0.11,0.19,-1.22,3.17,0.12,-0.49,0.00,0.00,0.00,0.00,2
-0.11,0.19,-1.23,3.11,0.24,-0.67,0.00,0.00,0.00,0.00,2
-0.11,0.20,-1.23,3.36,0.12,-0.73,0.00,0.00,0.00,0.00,2
-0.11,0.19,-1.22,3.11,0.00,-0.61,0.00,0.00,0.00,0.00,2
-0.11,0.19,-1.23,2.81,0.06,-0.55,0.00,0.00,0.00,0.00,2
-0.12,0.19,-1.23,3.17,0.00,-0.85,0.00,0.00,0.00,0.00,2
-0.11,0.19,-1.22,3.05,0.18,-0.67,0.00,0.00,0.00,0.00,2
-0.11,0.19,-1.22,2.75,-0.12,-0.55,0.00,0.00,0.00,0.00,2
-0.11,0.20,-1.22,2.99,-0.12,-0.92,0.00,0.00,0.00,0.00,2
-0.11,0.19,-1.22,2.99,0.00,-0.85,0.00,0.00,0.00,0.00,2
-0.11,0.19,-1.22,3.11,-0.06,-0.67,0.00,0.00,0.00,0.00,2
-0.11,0.19,-1.23,3.23,-0.06,-0.79,0.00,0.00,0.00,0.00,2
-0.11,0.19,-1.22,2.81,0.06,-0.67,0.00,0.00,0.00,0.00,2
-0.11,0.19,-1.23,2.93,-0.06,-0.67,0.00,0.00,0.00,0.00,2
-0.11,0.20,-1.23,2.99,-0.18,-0.61,0.00,0.00,0.00,0.00,2
-0.11,0.19,-1.22,2.50,0.18,-0.79,0.00,0.00,0.00,0.00,2
-0.11,0.19,-1.22,2.75,0.31,-0.67,0.00,0.00,0.00,0.00,2
-0.11,0.19,-1.23,2.81,-0.06,-0.55,0.00,0.00,0.00,0.00,2
-0.11,0.19,-1.23,2.75,0.00,-0.67,0.00,0.00,0.00,0.00,2
-0.11,0.19,-1.23,2.87,-0.06,-0.92,0.00,0.00,0.00,0.00,2
-0.11,0.19,-1.22,2.93,0.18,-0.55,0.00,0.00,0.00,0.00,2
-0.11,0.19,-1.22,2.81,0.06,-0.61,0.00,0.00,0.00,0.00,2
-0.11,0.19,-1.22,2.99,0.06,-0.79,0.00,0.00,0.00,0.00,2
-0.11,0.19,-1.22,2.93,0.18,-0.79,0.00,0.00,0.00,0.00,2
-0.11,0.19,-1.22,2.81,0.06,-0.61,0.00,0.00,0.00,0.00,2
-0.11,0.19,-1.22,2.69,-0.06,-0.85,0.00,0.00,0.00,0.00,2
-0.11,0.19,-1.23,3.17,-0.43,-0.31,0.00,0.00,0.00,0.00,2
-0.11,0.20,-1.22,2.69,0.18,-0.67,0.00,0.00,0.00,0.00,2
-0.11,0.19,-1.23,3.05,0.06,-0.61,0.00,0.00,0.00,0.00,2
-0.11,0.19,-1.23,2.99,0.00,-0.55,0.00,0.00,0.00,0.00,2
-0.11,0.19,-1.22,2.93,-0.06,-0.49,0.00,0.00,0.00,0.00,2
-0.11,0.19,-1.23,2.62,-0.49,-0.67,0.00,0.00,0.00,0.00,2
-0.11,0.19,-1.22,2.99,0.49,-0.43,0.00,0.00,0.00,0.00,2
-0.11,0.20,-1.22,2.69,-0.12,-0.79,0.00,0.00,0.00,0.00,2
-0.11,0.19,-1.22,2.44,-0.18,-0.79,0.00,0.00,0.00,0.00,2
-0.11,0.18,-1.22,-0.43,-0.18,-0.55,0.00,0.00,0.00,0.00,2
-0.11,0.17,-1.21,-1.16,-1.04,-0.98,0.00,0.00,0.00,0.00,2
-0.11,0.18,-1.23,0.55,-0.43,-0.37,0.00,0.00,0.00,0.00,2
-0.11,0.18,-1.23,4.64,0.43,-0.49,0.00,0.00,0.00,0.00,2
-0.11,0.19,-1.23,2.62,0.18,-0.67,0.00,0.00,0.00,0.00,2
-0.11,0.19,-1.23,2.69,-0.31,-0.79,0.00,0.00,0.00,0.00,2
-0.10,0.19,-1.23,3.36,0.18,-1.04,0.00,0.00,0.00,0.00,2
-0.11,0.19,-1.23,2.56,-0.18,-0.79,0.00,0.00,0.00,0.00,2
-0.11,0.19,-1.23,2.87,-0.06,-0.37,0.00,0.00,0.00,0.00,2
-0.11,0.19,-1.22,2.62,0.00,-0.49,0.00,0.00,0.44,0.00,2
-0.11,0.19,-1.23,2.93,-0.06,-0.61,0.00,0.00,0.81,0.00,2
-0.11,0.18,-1.21,2.81,0.00,-0.98,0.00,0.00,0.00,0.00,2
-0.11,0.19,-1.22,2.93,0.00,-0.67,1.25,0.00,0.00,0.00,2
-0.11,0.20,-1.23,2.87,0.18,-0.55,0.33,0.00,0.00,0.00,2
-0.11,0.18,-1.23,3.48,-0.24,-0.73,0.00,0.00,0.00,0.00,2
-0.11,0.20,-1.22,3.36,0.00,-0.55,0.00,0.00,0.00,0.78,2
-0.11,0.19,-1.23,3.17,0.43,-0.92,0.00,0.00,0.00,0.62,2
-0.10,0.21,-1.23,3.54,0.67,0.73,0.00,0.00,0.00,0.00,2
-0.11,0.19,-1.22,3.42,-0.06,-1.16,0.00,0.00,0.00,0.00,2
-0.10,0.10,-1.24,20.02,1.16,-2.14,0.00,0.00,0.00,0.00,2
-0.10,0.14,-1.25,-7.57,-2.14,-0.49,0.00,0.00,0.00,0.00,2
-0.09,0.13,-1.22,-4.64,-0.85,-0.31,0.00,0.00,0.00,0.00,2
-0.09,0.15,-1.26,-2.14,-0.31,-0.31,0.00,0.00,0.00,0.00,2
-0.09,0.13,-1.23,5.07,0.24,-1.46,0.00,0.00,0.00,0.00,2
-0.08,0.12,-1.22,3.97,0.79,-0.67,0.00,0.00,0.00,0.00,2
-0.09,0.17,-1.23,-3.72,-0.06,0.24,0.00,0.00,0.00,0.00,2
-0.10,0.19,-1.22,5.49,1.16,-0.24,0.00,0.00,0.00,0.00,2
-0.13,0.12,-1.26,6.47,0.61,-2.56,0.00,0.00,0.00,0.00,2
-0.15,0.20,-1.24,-4.46,3.30,7.87,0.00,0.00,0.00,0.00,2
-0.19,0.29,-1.27,20.26,-13.24,-25.39,0.00,0.00,0.00,0.00,2
-0.18,0.40,-1.23,-1.34,2.62,11.41,0.00,0.00,0.00,0.00,2
0.12,0.16,-1.08,13.12,-10.86,0.18,0.00,0.00,0.06,0.00,2
0.06,0.08,-1.38,13.85,-16.42,-17.94,0.00,0.00,0.07,0.00,2
0.11,0.06,-1.05,11.54,-11.66,18.31,0.00,0.00,0.09,0.00,2
