accelX,accelY,accelZ,gyroX,gyroY,gyroZ,fsr1,fsr2,fsr3,fsr4,label
0.26,-0.04,-1.20,2.56,-0.06,-0.73,0.00,0.17,0.24,0.00,2
0.25,-0.06,-1.19,2.69,-1.22,-0.92,0.00,0.13,0.24,0.00,2
0.25,-0.06,-1.20,2.87,-2.14,0.00,0.00,0.15,0.24,0.00,2
0.25,-0.05,-1.20,-0.98,-4.88,0.49,0.00,0.17,0.30,0.00,2
0.25,-0.03,-1.20,2.81,-0.49,-2.01,0.00,0.13,0.33,0.00,2
0.25,-0.03,-1.20,3.23,0.24,-0.12,0.00,0.12,0.32,0.00,2
0.25,-0.04,-1.21,2.81,0.37,-0.67,0.00,0.11,0.32,0.00,2
0.25,-0.04,-1.19,3.05,0.06,-0.49,0.00,0.11,0.32,0.00,2
0.25,-0.03,-1.21,2.32,-0.49,-0.43,0.00,0.13,0.35,0.00,2
0.24,-0.03,-1.21,3.42,0.18,-0.55,0.00,0.12,0.34,0.00,2
0.25,-0.03,-1.19,2.62,0.00,-0.61,0.00,0.13,0.35,0.00,2
0.24,-0.05,-1.19,0.61,-0.98,-0.49,0.00,0.12,0.35,0.00,2
0.26,-0.05,-1.20,2.50,-0.79,-0.49,0.00,0.11,0.34,0.00,2
0.26,-0.04,-1.20,1.95,-1.65,-0.92,0.00,0.10,0.34,0.00,2
0.25,-0.03,-1.21,2.93,-1.53,-0.49,0.00,0.14,0.40,0.00,2
0.25,-0.04,-1.20,3.17,0.61,-0.79,0.00,0.15,0.41,0.00,2
0.25,-0.04,-1.19,2.50,-0.18,-1.34,0.00,0.15,0.38,0.00,2
0.25,-0.04,-1.21,2.69,-0.61,-1.16,0.00,0.15,0.35,0.00,2
0.25,-0.03,-1.20,4.52,3.05,-0.18,0.00,0.16,0.35,0.00,2
0.24,-0.01,-1.20,7.20,-1.59,-0.37,0.00,0.00,0.13,0.00,2
0.22,0.01,-1.24,3.48,-0.37,-0.18,0.00,0.20,0.37,0.00,2
0.25,-0.02,-1.21,4.76,2.56,0.12,0.00,0.14,0.34,0.00,2
0.25,-0.03,-1.20,0.43,-2.81,-3.30,0.00,0.15,0.34,0.00,2
0.24,-0.04,-1.20,2.38,-0.92,-1.04,0.00,0.15,0.34,0.00,2
0.25,-0.03,-1.20,3.23,0.61,-0.61,0.00,0.13,0.34,0.00,2
0.25,-0.02,-1.20,2.14,-2.08,-2.14,0.00,0.11,0.33,0.00,2
0.26,-0.04,-1.23,5.37,-0.73,0.06,0.00,0.11,0.33,0.00,2
0.25,-0.04,-1.19,3.72,1.28,0.00,0.00,0.10,0.32,0.00,2
0.25,-0.01,-1.20,-7.87,-2.08,-2.32,0.00,0.09,0.32,0.00,2
0.24,-0.03,-1.20,6.59,0.55,0.18,0.00,0.00,0.00,0.00,2
0.25,-0.03,-1.19,3.36,3.36,-0.12,0.00,0.10,0.30,0.00,2
0.24,-0.03,-1.22,1.77,-0.43,-0.55,0.00,0.09,0.29,0.00,2
0.25,-0.04,-1.21,5.55,-0.49,-1.28,0.00,0.07,0.27,0.00,2
0.24,-0.01,-1.22,3.17,1.65,-0.98,0.00,0.11,0.32,0.00,2
0.25,-0.02,-1.19,2.44,3.54,-1.04,0.00,0.10,0.31,0.00,2
0.24,-0.00,-1.19,2.69,7.63,-0.12,0.00,0.00,0.00,0.00,2
0.21,-0.04,-1.20,-1.28,-2.99,-0.49,0.00,0.00,0.00,0.00,2
0.22,-0.05,-1.23,4.09,0.55,-1.59,0.00,0.00,0.00,0.00,2
0.24,-0.02,-1.23,-2.50,-4.52,-0.61,0.00,0.10,0.26,0.00,2
0.24,-0.03,-1.19,1.53,1.10,-1.28,0.00,0.09,0.26,0.00,2
0.24,-0.04,-1.21,4.70,1.89,0.37,0.00,0.12,0.26,0.00,2
0.23,-0.06,-1.20,2.50,0.18,-0.37,0.00,0.13,0.26,0.00,2
0.24,-0.06,-1.21,6.04,-1.89,0.85,0.00,0.13,0.26,0.00,2
0.23,0.00,-1.22,-0.49,1.53,-0.85,0.00,0.10,0.25,0.00,2
0.22,-0.00,-1.22,4.15,0.12,-0.55,0.00,0.15,0.21,0.00,2
0.21,-0.00,-1.22,3.42,-0.92,-2.20,0.00,0.14,0.06,0.00,2
0.23,0.00,-1.21,3.11,0.18,0.18,0.00,0.14,0.25,0.00,2
0.25,-0.04,-1.21,0.73,-1.53,-0.98,0.00,0.08,0.25,0.00,2
0.25,-0.03,-1.21,1.83,-0.79,-0.98,0.00,0.07,0.25,0.00,2
0.25,-0.03,-1.21,2.99,0.73,-0.12,0.00,0.07,0.26,0.00,2
0.25,-0.05,-1.20,2.56,-0.49,-1.16,0.00,0.07,0.27,0.00,2
0.25,-0.06,-1.21,4.09,2.20,0.31,0.00,0.04,0.26,0.00,2
0.27,-0.02,-1.23,-1.59,-11.60,-2.26,0.00,0.00,0.26,0.00,2
0.26,-0.05,-1.20,4.76,0.92,-1.53,0.00,0.00,0.26,0.00,2
0.26,-0.04,-1.22,2.08,-2.87,-0.79,0.00,0.00,0.26,0.00,2
0.27,-0.04,-1.20,2.62,-0.55,-0.37,0.00,0.00,0.26,0.00,2
0.27,-0.05,-1.20,3.23,-0.49,-1.04,0.00,0.00,0.26,0.00,2
0.27,-0.05,-1.19,4.21,1.22,-2.75,0.00,0.00,0.26,0.00,2
0.28,-0.04,-1.21,-0.92,-8.18,-0.85,0.00,0.00,0.28,0.00,2
0.28,-0.04,-1.20,3.36,0.18,-0.55,0.00,0.00,0.28,0.00,2
0.28,-0.05,-1.20,3.36,0.67,-0.43,0.00,0.00,0.27,0.00,2
0.27,-0.06,-1.18,5.62,4.33,0.06,0.00,0.00,0.26,0.00,2
0.29,-0.05,-1.16,6.65,4.46,-2.14,0.00,0.00,0.26,0.00,2
0.27,-0.07,-1.23,6.59,5.37,0.18,0.00,0.00,0.27,0.00,2
0.28,-0.06,-1.19,3.23,0.73,-0.24,0.00,0.00,0.29,0.20,2
0.28,-0.07,-1.18,1.04,-2.38,-1.46,0.00,0.00,0.29,0.20,2
0.30,-0.06,-1.19,5.49,2.26,-0.43,0.00,0.00,0.25,0.00,2
0.33,-0.09,-1.17,2.62,-0.85,-1.28,0.00,0.00,0.23,0.33,2
0.33,-0.09,-1.18,5.19,2.38,0.37,0.00,0.00,0.21,0.73,2
0.33,-0.10,-1.18,4.46,1.83,-1.59,0.00,0.00,0.24,0.00,2
0.33,-0.10,-1.15,3.85,-1.10,-0.55,0.00,0.00,0.25,0.00,2
0.33,-0.09,-1.17,2.99,-0.06,-0.67,0.00,0.00,0.25,0.00,2
0.33,-0.08,-1.18,1.04,-1.53,-1.77,0.00,0.00,0.25,0.00,2
0.34,-0.09,-1.17,2.56,-0.67,-1.34,0.00,0.00,0.22,0.00,2
0.34,-0.09,-1.16,2.99,-1.10,-1.59,0.00,0.00,0.22,0.00,2
0.33,-0.09,-1.17,2.32,0.24,-0.85,0.00,0.00,0.22,0.00,2
0.33,-0.09,-1.17,2.93,-0.43,-0.49,0.00,0.00,0.22,0.00,2
0.33,-0.10,-1.16,3.85,-1.10,1.10,0.00,0.00,0.25,0.00,2
0.33,-0.09,-1.17,2.32,-0.55,-0.49,0.00,0.00,0.22,0.00,2
0.33,-0.11,-1.17,2.99,0.06,-0.43,0.00,0.00,0.22,0.00,2
0.33,-0.07,-1.18,6.04,2.99,0.18,0.00,0.00,0.20,0.00,2
0.32,-0.08,-1.17,2.81,-0.43,-0.06,0.00,0.00,0.20,0.00,2
0.33,-0.08,-1.18,2.81,-0.55,-0.85,0.00,0.00,0.20,0.00,2
0.33,-0.08,-1.17,2.87,0.49,-0.92,0.00,0.00,0.21,0.00,2
0.33,-0.08,-1.18,1.71,-0.49,0.00,0.00,0.00,0.22,0.00,2
0.32,-0.09,-1.17,2.44,1.04,0.18,0.00,0.00,0.20,0.00,2
0.32,-0.05,-1.21,5.43,1.28,2.14,0.00,0.00,0.22,0.00,2
0.31,-0.06,-1.20,6.41,2.32,0.31,0.00,0.00,0.22,0.00,2
0.29,-0.06,-1.21,0.79,-2.26,0.49,0.00,0.00,0.23,0.00,2
0.31,-0.07,-1.19,2.62,-1.46,-1.04,0.00,0.00,0.27,0.00,2
0.31,-0.08,-1.18,2.56,-0.55,-1.04,0.00,0.00,0.29,0.00,2
0.31,-0.08,-1.17,3.42,1.04,-0.73,0.00,0.00,0.25,0.00,2
0.28,-0.04,-1.18,2.32,1.16,-1.77,0.00,0.00,0.24,0.00,2
0.27,-0.04,-1.20,1.10,-3.60,-1.71,0.00,0.00,0.24,0.00,2
0.26,-0.04,-1.20,3.97,-1.95,-0.85,0.00,0.00,0.24,0.00,2
0.29,-0.05,-1.18,-0.79,-2.69,-1.28,0.00,0.00,0.24,0.00,2
0.27,-0.02,-1.19,-0.37,-0.67,0.37,0.00,0.00,0.24,0.00,2
0.27,-0.03,-1.19,3.23,-1.10,0.79,0.00,0.00,0.24,0.00,2
0.25,-0.03,-1.20,5.00,0.06,-0.43,0.00,0.00,0.23,0.00,2
0.26,-0.04,-1.22,4.03,-1.28,-0.73,0.00,0.00,0.23,0.00,2
0.27,-0.02,-1.21,-1.22,-3.42,-1.77,0.00,0.00,0.21,0.00,2
0.27,-0.07,-1.20,8.54,-0.43,0.49,0.00,0.00,0.23,0.00,2
0.27,-0.06,-1.19,5.19,4.27,0.18,0.00,0.00,0.23,0.00,2
0.26,-0.03,-1.20,6.16,2.32,0.79,0.00,0.00,0.23,0.00,2
0.24,-0.05,-1.19,-3.78,-5.49,-1.77,0.00,0.00,0.23,0.00,2
0.26,-0.04,-1.21,1.59,2.01,-1.28,0.00,0.00,0.23,0.00,2
0.23,0.00,-1.16,13.73,12.51,7.20,0.00,0.00,0.23,0.00,2
0.25,-0.02,-1.21,3.17,0.49,-0.49,0.00,0.00,0.23,0.00,2
0.23,-0.03,-1.22,6.04,9.58,-1.95,0.00,0.00,0.23,0.00,2
0.23,-0.08,-1.21,9.34,-4.33,1.22,0.00,0.05,0.24,0.00,2
0.25,-0.01,-1.19,-2.08,-8.36,-0.85,0.00,0.00,0.24,0.00,2
0.24,0.01,-1.24,4.58,-1.46,1.59,0.00,0.00,0.24,0.00,2
0.24,0.01,-1.20,-0.12,-1.22,-0.85,0.00,0.00,0.24,0.00,2
0.21,-0.02,-1.23,7.32,-7.08,1.71,0.00,0.00,0.20,0.00,2
0.22,0.02,-1.20,3.48,1.95,-0.61,0.00,0.00,0.15,0.00,2
0.25,-0.01,-1.21,4.52,-8.06,1.40,0.00,0.00,0.08,0.00,2
0.27,-0.04,-1.20,3.97,-3.36,-0.67,0.00,0.00,0.08,0.00,2
0.24,-0.01,-1.17,-2.75,-1.89,-0.37,0.00,0.00,0.21,0.00,2
0.23,-0.01,-1.22,3.17,2.14,-1.95,0.00,0.05,0.24,0.00,2
0.25,-0.01,-1.18,6.29,0.85,0.31,0.00,0.05,0.24,0.00,2
0.23,-0.01,-1.22,-1.46,3.66,-3.60,0.00,0.05,0.22,0.00,2
0.17,-0.01,-1.22,1.34,-4.52,-0.43,0.00,0.00,0.11,0.00,2
0.16,-0.02,-1.24,-6.65,-3.17,-2.99,0.00,0.00,0.21,0.00,2
0.21,-0.04,-1.23,-6.84,-4.21,-1.83,0.00,0.00,0.20,0.00,2
0.20,0.00,-1.22,1.22,-0.18,-2.62,0.00,0.00,0.16,0.00,2
0.21,-0.00,-1.22,-3.66,-8.24,0.24,0.00,0.00,0.00,0.00,2
0.23,-0.02,-1.20,3.66,0.37,-0.73,0.00,0.00,0.00,0.00,2
0.21,-0.01,-1.21,5.55,2.69,-0.49,0.00,0.00,0.00,0.00,2
0.21,-0.00,-1.23,-0.43,-3.48,-1.40,0.00,0.00,0.00,0.00,2
0.22,-0.03,-1.18,3.42,2.20,-1.59,0.00,0.00,0.13,0.00,2
0.18,0.02,-1.26,-0.24,-2.87,-1.40,0.00,0.00,0.22,0.00,2
0.21,-0.02,-1.23,3.54,-2.50,-6.10,0.00,0.00,0.23,0.00,2
0.20,-0.00,-1.22,4.21,-0.92,-2.08,0.00,0.00,0.25,0.00,2
0.20,-0.03,-1.23,3.60,0.61,-0.67,0.00,0.00,0.29,0.00,2
0.20,-0.04,-1.23,8.00,4.21,0.18,0.00,0.00,0.23,0.00,2
0.19,-0.01,-1.22,2.69,-1.22,-1.28,0.00,0.00,0.24,0.00,2
0.21,-0.03,-1.22,-1.46,-1.16,0.18,0.00,0.00,0.22,0.00,2
0.23,-0.04,-1.21,1.77,1.10,-0.79,0.00,0.00,0.22,0.00,2
0.23,-0.02,-1.22,3.30,-0.18,-1.28,0.00,0.00,0.23,0.00,2
0.23,-0.01,-1.19,-3.42,-5.19,-0.67,0.00,0.00,0.22,0.00,2
0.23,-0.03,-1.21,6.71,3.85,-1.46,0.00,0.00,0.23,0.00,2
0.23,-0.02,-1.22,4.82,1.46,0.24,0.00,0.00,0.22,0.00,2
0.20,-0.01,-1.22,3.23,-0.06,-0.24,0.00,0.00,0.13,0.00,2
0.21,0.00,-1.21,-3.85,-4.15,-0.92,0.00,0.00,0.00,0.00,2
0.22,-0.04,-1.20,2.62,0.31,-0.55,0.00,0.00,0.23,0.00,2
0.22,-0.02,-1.21,4.15,1.53,-0.18,0.00,0.00,0.23,0.00,2
0.22,-0.03,-1.21,3.54,1.28,0.31,0.00,0.00,0.22,0.00,2
0.18,-0.02,-1.24,12.27,14.83,-0.98,0.00,0.00,0.23,0.00,2
0.15,0.02,-1.33,8.91,-1.28,0.12,0.00,0.00,0.23,0.00,2
0.24,0.02,-1.19,-14.16,-27.04,1.77,0.00,0.00,0.23,0.00,2
0.17,-0.06,-1.28,15.93,12.94,-2.75,0.00,0.00,0.24,0.00,2
-0.07,0.14,-1.23,2.08,-1.22,-0.67,0.00,0.00,0.16,0.00,2
-0.07,0.14,-1.23,2.62,0.24,-0.67,0.00,0.00,0.09,0.00,2
-0.07,0.14,-1.23,3.72,3.17,-0.98,0.00,0.00,0.08,0.00,2
-0.10,0.10,-1.23,1.83,-5.37,0.37,0.00,0.00,0.08,0.00,2
-0.09,0.13,-1.24,2.20,2.26,-0.12,0.00,0.00,0.08,0.00,2
-0.08,0.13,-1.24,1.95,-0.37,-1.71,0.00,0.00,0.08,0.00,2
-0.07,0.12,-1.24,2.56,-1.04,-1.53,0.00,0.00,0.08,0.00,2
-0.03,0.10,-1.24,2.01,-4.27,-0.24,0.00,0.00,0.07,0.00,2
-0.01,0.11,-1.25,4.58,2.87,-0.31,0.00,0.00,0.05,0.00,2
-0.00,0.07,-1.25,7.87,4.58,0.31,0.00,0.00,0.06,0.06,2
-0.02,0.07,-1.24,2.50,0.37,-0.61,0.00,0.00,0.07,0.78,2
-0.01,0.09,-1.24,2.62,-0.67,-0.43,0.04,0.00,0.00,0.72,2
0.03,0.12,-1.25,9.46,10.62,-3.66,0.86,0.00,0.00,0.00,2
-0.01,0.08,-1.24,3.72,1.53,-0.18,0.91,0.00,0.00,0.00,2
-0.02,0.06,-1.24,4.15,-0.31,-0.61,0.00,0.00,0.08,0.00,2
-0.02,0.09,-1.25,2.75,1.16,-0.06,0.00,0.00,0.27,0.00,2
-0.01,0.08,-1.23,2.75,-0.18,-0.43,0.00,0.00,0.24,0.00,2
-0.02,0.09,-1.24,3.05,-1.65,-1.40,0.00,0.00,0.05,0.00,2
-0.01,0.08,-1.24,2.50,-0.18,-0.31,0.00,0.00,0.06,0.00,2
-0.04,0.09,-1.23,-2.81,-4.58,-2.56,0.00,0.00,0.07,0.00,2
-0.04,0.07,-1.23,1.34,0.49,-0.55,0.00,0.00,0.05,0.00,2
-0.03,0.10,-1.23,1.59,1.04,-0.85,0.00,0.00,0.00,0.00,2
-0.05,0.11,-1.25,-5.37,-12.76,-0.31,0.00,0.00,0.00,0.00,2
-0.06,0.11,-1.25,-0.49,-8.24,-0.12,0.00,0.00,0.06,0.00,2
-0.03,0.09,-1.24,6.77,6.96,0.00,0.00,0.00,0.00,0.00,2
-0.08,0.11,-1.24,5.68,3.36,-2.14,0.00,0.00,0.00,0.00,2
-0.11,0.15,-1.24,3.91,13.55,0.79,0.00,0.00,0.00,0.00,2
-0.11,0.14,-1.22,6.16,3.23,0.18,0.00,0.00,0.00,0.00,2
-0.08,0.15,-1.26,9.89,5.98,-1.95,0.00,0.00,0.00,0.00,2
-0.08,0.13,-1.24,2.26,-0.61,-0.43,0.00,0.00,0.00,0.00,2
-0.11,0.13,-1.23,0.12,-1.77,0.43,0.00,0.00,0.00,0.00,2
-0.11,0.14,-1.24,2.81,-5.19,-0.79,0.00,0.00,0.00,0.00,2
-0.08,0.14,-1.23,2.44,5.92,-0.92,0.00,0.00,0.00,0.00,2
-0.09,0.11,-1.25,5.62,2.62,-0.67,0.00,0.00,0.00,0.00,2
-0.09,0.12,-1.23,2.26,-1.34,-0.24,0.00,0.00,0.00,0.00,2
-0.10,0.15,-1.25,2.01,-1.71,-0.79,0.00,0.00,0.00,0.00,2
-0.09,0.13,-1.24,0.00,-2.01,-0.31,0.00,0.00,0.00,0.00,2
-0.05,0.12,-1.24,9.34,5.98,-4.09,0.00,0.00,0.00,0.00,2
-0.06,0.12,-1.21,6.35,4.52,-1.71,0.00,0.00,0.00,0.00,2
-0.07,0.12,-1.23,2.38,-1.28,-1.28,0.00,0.00,0.00,0.00,2
-0.08,0.13,-1.24,1.34,-3.36,-0.73,0.00,0.00,0.00,0.00,2
-0.05,0.09,-1.23,5.62,-0.24,-5.49,0.00,0.00,0.00,0.00,2
-0.10,0.17,-1.21,7.20,9.09,-3.54,0.00,0.00,0.00,0.00,2
-0.08,0.12,-1.22,2.87,10.25,1.59,0.00,0.00,0.00,0.00,2
-0.09,0.13,-1.25,-1.46,-4.88,-0.24,0.00,0.00,0.00,0.00,2
0.40,-0.40,-1.04,4.76,-0.24,0.18,0.00,0.00,0.00,0.00,2
0.40,-0.39,-1.05,3.97,1.53,-0.49,0.00,0.00,0.00,0.00,2
0.40,-0.40,-1.05,1.53,0.12,-1.53,0.00,0.00,0.00,0.00,2
0.40,-0.40,-1.07,1.95,-1.77,0.43,0.00,0.00,0.00,0.00,2
0.42,-0.39,-1.04,2.38,-2.14,-2.75,0.00,0.00,0.00,0.00,2
0.43,-0.39,-1.03,-5.68,-1.10,-1.89,0.00,0.00,0.00,0.00,2
0.43,-0.40,-1.03,-0.61,-4.70,-1.46,0.00,0.00,0.43,0.00,2
0.42,-0.42,-1.02,2.38,-0.06,-0.24,0.00,0.00,0.73,0.00,2
0.44,-0.38,-1.05,3.54,1.16,-1.65,0.00,0.00,0.00,0.00,2
0.43,-0.42,-1.02,2.87,-0.06,-0.24,0.00,0.00,0.00,0.00,2
0.41,-0.43,-1.02,6.77,-0.31,2.75,0.00,0.00,0.00,0.00,2
0.40,-0.41,-1.05,9.34,0.67,-0.67,0.00,0.00,0.00,0.00,2
0.43,-0.42,-1.02,2.26,-0.85,-0.06,0.00,0.00,0.00,0.00,2
0.42,-0.42,-1.01,1.95,-1.53,-2.08,0.00,0.00,0.00,0.82,2
0.41,-0.43,-1.02,4.94,0.43,-1.04,0.00,0.00,0.00,1.02,2
0.42,-0.42,-1.02,0.31,-0.24,-1.83,0.00,0.00,0.00,0.94,2
0.41,-0.43,-1.02,6.47,6.29,0.85,0.00,0.00,0.00,0.00,2
0.41,-0.42,-1.02,4.82,-1.34,-0.06,0.00,0.00,0.00,0.00,2
0.40,-0.42,-1.03,2.50,0.31,-0.73,0.00,0.00,0.00,0.00,2
0.41,-0.43,-1.03,2.56,-0.98,-1.22,0.00,0.00,0.00,0.00,2
0.41,-0.41,-1.04,6.59,3.23,-0.31,0.00,0.00,0.00,0.00,2
0.39,-0.44,-1.04,-2.56,-4.52,-1.59,0.00,0.00,0.00,0.00,2
0.39,-0.40,-1.03,8.12,3.85,-0.31,0.07,0.00,0.00,0.00,2
0.42,-0.41,-1.03,0.55,-2.62,-1.53,0.95,0.00,0.00,0.00,2
0.41,-0.40,-1.05,3.48,0.18,-0.73,0.96,0.00,0.00,0.00,2
0.40,-0.41,-1.03,2.87,-0.12,-1.22,0.68,0.00,0.00,0.00,2
0.40,-0.41,-1.03,2.69,-0.43,1.65,0.33,0.00,0.00,0.00,2
0.41,-0.41,-1.03,4.03,-0.24,0.00,0.00,0.00,0.00,0.00,2
0.41,-0.41,-1.03,3.66,0.24,0.37,0.00,0.00,0.00,0.00,2
0.40,-0.42,-1.04,1.65,1.95,0.12,0.00,0.00,0.00,0.00,2
0.41,-0.41,-1.04,3.05,1.34,-0.73,0.00,0.00,0.00,0.00,2
0.41,-0.41,-1.04,3.85,0.18,-0.79,0.00,0.00,0.00,0.00,2
0.41,-0.41,-1.05,3.42,-0.18,-1.04,1.11,0.00,0.00,0.00,2
0.41,-0.42,-1.04,2.99,-0.55,-0.55,1.27,0.00,0.00,0.00,2
0.42,-0.42,-1.01,8.73,7.75,-0.31,0.00,0.00,0.00,0.00,2
0.41,-0.41,-1.04,2.14,-0.55,-0.49,0.00,0.00,0.00,0.00,2
0.40,-0.41,-1.05,3.23,0.18,-0.73,0.00,0.00,0.00,0.00,2
0.41,-0.41,-1.04,2.50,0.31,-1.53,0.00,0.00,0.99,0.00,2
0.40,-0.42,-1.06,5.37,1.40,0.18,0.00,0.00,1.06,0.00,2
0.40,-0.43,-1.03,-2.26,-2.08,-0.98,0.00,0.00,0.00,0.61,2
0.41,-0.42,-1.03,3.60,-0.12,-0.98,0.00,0.00,0.00,0.87,2
0.42,-0.38,-1.04,3.23,0.06,-2.14,0.00,0.00,0.00,0.00,2
0.39,-0.41,-1.05,1.77,-1.04,-0.37,0.00,0.00,0.00,0.00,2
0.38,-0.44,-1.04,8.06,0.61,1.59,0.00,0.00,0.00,0.00,2
0.40,-0.25,-1.03,2.08,-2.38,2.81,0.00,0.00,0.00,0.00,2
0.40,-0.19,-1.13,6.29,0.98,-1.16,0.00,0.00,0.00,0.00,2
0.39,-0.16,-1.12,-1.77,2.20,-0.55,0.00,0.00,0.07,0.00,2
0.39,-0.18,-1.14,3.17,0.12,-0.37,0.00,0.00,0.00,0.00,2
0.44,-0.19,-1.02,-14.16,-1.77,-1.59,0.00,0.00,0.00,0.00,2
0.42,-0.18,-1.10,-3.17,7.63,-3.54,0.00,0.00,0.00,0.00,2
0.39,-0.15,-1.13,2.26,-0.55,-0.37,0.00,0.00,0.00,0.00,2
0.45,-0.24,-1.00,-22.52,-38.51,-5.55,0.00,0.00,0.00,0.00,2
0.38,-0.18,-1.13,5.13,1.04,-0.24,0.00,0.00,0.00,0.00,2
0.39,-0.18,-1.13,-5.80,-12.21,-2.26,0.00,0.00,0.00,0.00,2
0.40,-0.17,-1.07,-15.44,-24.29,-0.73,0.00,0.00,0.30,0.00,2
0.42,-0.25,-1.07,-6.35,-18.25,3.85,0.00,0.00,0.22,0.00,2
0.40,-0.29,-1.12,12.51,4.15,-2.99,0.00,0.00,0.20,0.00,2
0.43,-0.31,-1.10,7.81,14.28,-10.99,0.00,0.00,0.15,0.00,2
0.41,-0.31,-1.13,16.17,18.19,-8.36,0.00,0.00,0.20,0.00,2
0.47,-0.30,-1.05,-5.80,-3.66,4.39,0.00,0.00,0.15,0.00,2
0.45,-0.29,-1.07,6.23,1.04,2.01,0.00,0.00,0.17,0.00,2
0.44,-0.29,-1.05,3.85,4.33,0.18,0.00,0.00,0.18,0.00,2
0.45,-0.28,-1.08,1.28,-4.21,-0.18,0.00,0.00,0.18,0.00,2
0.45,-0.30,-1.07,2.14,0.73,-1.28,0.00,0.00,0.15,0.00,2
0.43,-0.29,-1.07,4.33,0.31,-1.04,0.00,0.00,0.19,0.00,2
0.42,-0.26,-1.10,-0.43,-8.12,-0.37,0.00,0.00,0.22,0.00,2
0.43,-0.26,-1.07,2.08,-1.53,0.00,0.00,0.00,0.24,0.00,2
0.42,-0.24,-1.11,2.44,-2.26,-0.55,0.00,0.00,0.23,0.00,2
0.43,-0.28,-1.09,2.87,0.18,1.77,0.00,0.00,0.21,0.00,2
0.44,-0.24,-1.08,6.77,0.85,-1.34,0.00,0.00,0.25,0.00,2
0.43,-0.27,-1.06,2.50,1.04,1.22,0.00,0.00,0.00,0.00,2
0.42,-0.26,-1.09,3.60,0.73,-0.79,0.00,0.00,0.00,0.00,2
0.42,-0.26,-1.10,1.53,-1.10,-0.49,0.00,0.00,0.00,0.00,2
0.42,-0.25,-1.11,6.16,0.92,0.12,0.00,0.00,0.00,0.00,2
0.44,-0.24,-1.09,2.87,-0.55,-0.37,0.00,0.00,0.00,0.00,2
0.40,-0.24,-1.12,4.27,0.55,-1.22,0.00,0.00,0.00,0.00,2
0.42,-0.25,-1.11,7.26,-0.49,-0.92,0.00,0.00,0.00,0.00,2
0.36,-0.22,-1.16,9.03,14.47,-3.36,0.00,0.00,0.00,0.00,2
0.34,-0.21,-1.13,5.37,2.26,-0.06,0.00,0.00,0.04,0.00,2
0.34,-0.19,-1.14,2.69,-0.55,0.12,0.00,0.00,0.08,0.00,2
0.33,-0.20,-1.20,8.54,5.31,2.44,0.00,0.00,0.06,0.00,2
0.35,-0.19,-1.16,3.36,1.59,-1.16,0.00,0.00,0.06,0.00,2
0.34,-0.18,-1.15,0.12,-1.34,-1.83,0.00,0.00,0.08,0.00,2
0.35,-0.16,-1.13,-0.43,-6.84,-2.69,0.00,0.00,0.06,0.00,2
0.33,-0.17,-1.16,3.30,0.18,-0.37,0.00,0.00,0.00,0.00,2
0.34,-0.18,-1.15,2.93,-0.37,-0.24,0.00,0.00,0.00,0.00,2
0.34,-0.18,-1.15,2.87,0.06,-0.85,0.00,0.00,0.09,0.00,2
0.34,-0.17,-1.15,3.11,0.18,-0.06,0.00,0.00,0.00,0.00,2
0.34,-0.18,-1.15,3.23,0.79,-0.31,0.00,0.00,0.00,0.00,2
0.33,-0.18,-1.15,3.17,0.61,-0.55,0.00,0.00,0.00,0.00,2
0.34,-0.18,-1.15,3.60,0.43,-0.49,0.00,0.00,0.00,0.00,2
0.34,-0.17,-1.15,2.87,0.00,-0.79,0.00,0.00,0.00,0.00,2
0.33,-0.17,-1.15,2.56,-0.73,-0.49,0.00,0.00,0.05,0.00,2
0.33,-0.18,-1.16,2.20,-1.16,-0.73,0.00,0.00,0.05,0.00,2
0.33,-0.18,-1.16,2.81,0.24,-1.10,0.00,0.00,0.06,0.00,2
0.33,-0.17,-1.15,2.62,0.00,-0.92,0.00,0.00,0.05,0.00,2
0.34,-0.17,-1.15,3.60,0.61,-0.73,0.00,0.00,0.05,0.00,2
0.33,-0.17,-1.16,3.78,0.79,-0.49,0.00,0.00,0.05,0.00,2
0.33,-0.17,-1.15,2.69,-0.43,-0.12,0.00,0.00,0.05,0.00,2
0.34,-0.17,-1.15,3.36,0.24,-1.65,0.00,0.00,0.05,0.00,2
0.33,-0.15,-1.20,6.59,-0.55,-0.98,0.00,0.00,0.00,0.00,2
0.31,-0.14,-1.18,-3.11,-8.61,-0.12,0.00,0.00,0.15,0.00,2
0.37,-0.24,-1.08,35.34,10.50,9.77,0.00,0.00,0.00,0.00,2
0.33,-0.16,-1.16,5.55,4.88,1.28,0.00,0.00,0.00,0.00,2
0.33,-0.19,-1.15,10.68,-3.78,-1.22,0.00,0.15,0.06,0.00,2
0.34,-0.16,-1.15,2.38,-2.75,0.06,0.00,0.05,0.00,0.00,2
0.30,-0.17,-1.17,11.72,5.25,1.28,0.00,0.09,0.00,0.00,2
0.31,-0.15,-1.16,1.40,-7.08,-0.24,0.00,0.10,0.05,0.00,2
0.33,-0.13,-1.17,10.07,1.04,1.71,0.00,0.09,0.00,0.00,2
0.34,-0.17,-1.16,0.06,4.76,-1.65,0.00,0.08,0.00,0.00,2
0.30,-0.18,-1.17,0.49,-0.67,0.43,0.00,0.09,0.00,0.00,2
0.32,-0.16,-1.16,2.50,0.31,1.83,0.00,0.09,0.00,0.00,2
0.31,-0.15,-1.17,2.01,-0.55,-0.67,0.00,0.09,0.00,0.00,2
0.31,-0.15,-1.17,2.32,-0.43,-0.37,0.00,0.09,0.00,0.00,2
0.31,-0.17,-1.15,9.77,4.82,1.16,0.00,0.09,0.00,0.00,2
0.27,-0.13,-1.17,-0.24,-2.38,-0.43,0.00,0.16,0.00,0.00,2
0.26,-0.12,-1.20,-4.64,-6.35,-1.16,0.00,0.31,0.15,0.00,2
0.29,-0.15,-1.15,-2.99,-8.91,-0.24,0.00,0.10,0.00,0.00,2
0.27,-0.14,-1.18,0.79,-1.16,-0.79,0.00,0.25,0.11,0.00,2
0.28,-0.14,-1.17,3.85,0.31,-0.98,0.00,0.36,0.14,0.00,2
0.29,-0.13,-1.18,3.36,-0.12,-1.04,0.00,0.37,0.14,0.00,2
0.28,-0.13,-1.18,3.78,0.98,-1.16,0.00,0.37,0.13,0.00,2
0.28,-0.14,-1.18,2.62,-0.43,2.20,0.00,0.37,0.13,0.00,2
0.28,-0.15,-1.19,2.87,-0.92,-1.34,0.00,0.14,0.00,0.00,2
0.30,-0.16,-1.17,3.23,-0.85,-0.67,0.00,0.06,0.00,0.00,2
0.30,-0.16,-1.18,3.85,-0.18,-1.16,0.00,0.07,0.00,0.00,2
0.28,-0.17,-1.15,-0.37,-2.62,0.98,0.00,0.08,0.00,0.00,2
0.30,-0.16,-1.17,3.23,0.18,-0.67,0.00,0.08,0.00,0.00,2
0.29,-0.15,-1.18,10.62,-1.71,-0.18,0.00,0.08,0.00,0.00,2
0.29,-0.15,-1.17,4.39,1.04,-0.61,0.00,0.25,0.00,0.00,2
0.29,-0.12,-1.19,-0.55,-2.99,-1.71,0.00,0.00,0.00,0.00,2
0.28,-0.14,-1.18,2.81,-0.31,-0.31,0.00,0.00,0.00,0.00,2
0.28,-0.13,-1.18,4.88,1.77,-1.53,0.00,0.00,0.00,0.00,2
0.30,-0.13,-1.17,3.05,-0.37,-0.85,0.00,0.00,0.00,0.00,2
0.29,-0.14,-1.17,1.83,-0.92,-0.43,0.00,0.00,0.00,0.00,2
0.29,-0.14,-1.18,3.66,0.61,-0.37,0.00,0.00,0.00,0.00,2
0.29,-0.14,-1.18,2.14,-0.98,-0.73,0.00,0.00,0.00,0.00,2
0.29,-0.14,-1.18,0.49,-0.92,-0.79,0.00,0.00,0.00,0.00,2
0.29,-0.14,-1.18,0.55,2.32,-0.12,0.00,0.17,0.00,0.00,2
0.28,-0.13,-1.19,2.32,2.75,-0.43,0.00,0.10,0.00,0.00,2
0.28,-0.15,-1.18,3.05,1.16,-1.04,0.00,0.05,0.00,0.00,2
0.27,-0.14,-1.18,2.75,0.24,-1.04,0.00,0.05,0.00,0.00,2
0.26,-0.14,-1.18,5.68,6.41,0.73,0.00,0.00,0.00,0.00,2
0.27,-0.13,-1.19,11.29,2.75,-1.04,0.00,0.00,0.00,0.00,2
0.26,-0.13,-1.19,4.94,0.37,-0.12,0.00,0.00,0.00,0.00,2
0.28,-0.12,-1.18,3.36,0.37,-0.43,0.00,0.00,0.00,0.00,2
0.26,-0.14,-1.19,5.25,2.75,-0.18,0.00,0.00,0.00,0.00,2
0.28,-0.14,-1.19,-2.93,-3.17,-1.77,0.00,0.12,0.00,0.00,2
0.25,-0.16,-1.16,3.30,-1.28,0.18,0.00,0.11,0.00,0.00,2
0.27,-0.17,-1.18,-1.65,-4.27,2.26,0.00,0.26,0.10,0.00,2
0.28,-0.15,-1.16,-3.23,-0.49,-1.40,0.00,0.11,0.00,0.00,2
0.26,-0.17,-1.19,2.99,0.85,-0.55,0.00,0.13,0.07,0.00,2
0.27,-0.16,-1.20,1.89,-0.43,-0.98,0.00,0.09,0.00,0.00,2
0.26,-0.15,-1.18,2.81,0.18,-0.43,0.00,0.08,0.00,0.00,2
0.25,-0.17,-1.19,0.49,-0.49,0.00,0.00,0.09,0.00,0.00,2
0.27,-0.15,-1.18,3.91,-0.67,-0.55,0.00,0.09,0.00,0.00,2
0.27,-0.16,-1.19,2.93,0.12,-1.22,0.00,0.09,0.04,0.00,2
0.26,-0.16,-1.18,4.46,1.28,-0.98,0.00,0.10,0.05,0.00,2
0.26,-0.16,-1.19,3.23,0.24,-0.31,0.00,0.09,0.00,0.00,2
0.26,-0.16,-1.18,3.23,0.24,-0.18,0.00,0.09,0.00,0.00,2
0.26,-0.16,-1.18,3.72,0.55,-0.37,0.00,0.08,0.00,0.00,2
0.26,-0.15,-1.19,3.05,0.00,-1.59,0.00,0.09,0.00,0.00,2
0.25,-0.16,-1.18,2.14,-0.31,0.24,0.00,0.08,0.00,0.00,2
0.25,-0.16,-1.19,6.10,3.91,0.18,0.00,0.10,0.06,0.00,2
0.25,-0.12,-1.19,3.11,0.73,-0.18,0.00,0.17,0.00,0.00,2
0.26,-0.12,-1.19,1.83,-0.85,-0.43,0.00,0.18,0.07,0.00,2
0.26,-0.11,-1.20,1.77,1.71,-1.10,0.00,0.06,0.07,0.00,2
0.23,-0.12,-1.14,-2.44,3.66,-2.14,0.00,0.00,0.08,0.00,2
0.25,-0.14,-1.18,-1.28,0.49,-1.16,0.00,0.11,0.00,0.00,2
0.26,-0.15,-1.20,3.60,2.93,-0.55,0.00,0.00,0.00,0.00,2
0.28,-0.15,-1.17,6.41,3.72,0.00,0.00,0.00,0.00,0.00,2
0.27,-0.13,-1.18,3.97,2.44,-0.37,0.00,0.00,0.00,0.00,2
0.27,-0.14,-1.18,4.39,0.37,-0.31,0.00,0.00,0.00,0.00,2
0.27,-0.13,-1.19,2.01,-0.73,-0.67,0.00,0.00,0.00,0.00,2
0.27,-0.13,-1.19,3.78,1.40,-0.18,0.00,0.00,0.04,0.00,2
0.26,-0.11,-1.19,2.81,1.16,0.31,0.00,0.00,0.04,0.00,2
0.29,-0.12,-1.19,0.37,-2.20,-1.40,0.00,0.13,0.00,0.00,2
0.26,-0.12,-1.20,6.84,0.92,0.79,0.00,0.00,0.00,0.00,2
0.27,-0.11,-1.20,1.28,-0.18,-1.46,0.00,0.10,0.00,0.00,2
0.29,-0.15,-1.15,3.30,-4.88,0.85,0.00,0.11,0.00,0.00,2
0.26,-0.19,-1.18,12.76,2.75,3.66,0.00,0.13,0.00,0.00,2
0.26,-0.12,-1.20,1.46,0.73,-0.92,0.00,0.12,0.00,0.00,2
0.26,-0.11,-1.19,3.97,-1.04,-1.28,0.00,0.00,0.00,0.00,2
0.24,-0.11,-1.19,6.53,5.92,-2.56,0.00,0.06,0.00,0.00,2
0.25,-0.10,-1.21,5.80,-1.95,0.55,0.00,0.08,0.00,0.00,2
0.26,-0.07,-1.20,1.53,-0.18,-1.16,0.00,0.13,0.00,0.00,2
0.26,-0.10,-1.17,2.87,4.88,-1.16,0.00,0.18,0.00,0.00,2
0.27,-0.11,-1.20,2.62,-1.22,-1.10,0.00,0.16,0.00,0.00,2
0.27,-0.12,-1.19,2.20,0.85,-0.49,0.00,0.14,0.06,0.00,2
0.25,-0.11,-1.19,1.89,1.83,-1.89,0.00,0.09,0.09,0.00,2
0.30,-0.16,-1.16,3.97,0.61,-1.22,0.00,0.21,0.08,0.00,2
0.28,-0.15,-1.17,-0.24,-0.85,-0.55,0.00,0.21,0.09,0.00,2
0.31,-0.16,-1.17,4.82,6.29,-0.49,0.00,0.22,0.08,0.00,2
0.31,-0.17,-1.15,23.01,23.50,-1.40,0.00,0.24,0.09,0.00,2
0.24,-0.10,-1.20,1.83,-0.12,-0.85,0.00,0.17,0.00,0.00,2
0.25,-0.10,-1.21,3.05,1.04,-1.59,0.00,0.25,0.00,0.00,2
0.24,-0.10,-1.18,-2.01,-4.39,0.31,0.00,0.24,0.05,0.00,2
0.24,-0.10,-1.20,3.78,-2.32,-0.55,0.00,0.11,0.11,0.00,2
0.25,-0.13,-1.20,-0.06,-7.75,-0.92,0.00,0.25,0.11,0.00,2
0.24,-0.09,-1.20,-0.67,-1.77,0.00,0.00,0.24,0.00,0.00,2
0.25,-0.10,-1.20,7.32,5.49,-0.31,0.00,0.61,0.00,0.00,2
0.26,-0.11,-1.20,2.75,0.06,-0.61,0.00,0.79,0.00,0.00,2
0.26,-0.11,-1.20,1.34,-1.16,-0.98,0.00,0.83,0.00,0.00,2
0.29,-0.18,-1.18,-0.67,2.75,-0.06,0.00,0.85,0.00,0.00,2
0.27,-0.11,-1.16,7.57,2.69,-0.98,0.00,0.82,0.00,0.00,2
0.26,-0.13,-1.19,3.66,0.00,0.43,0.00,0.52,0.00,0.00,2
0.26,-0.13,-1.19,2.75,-0.85,0.06,0.00,0.69,0.00,0.00,2
0.26,-0.13,-1.18,3.48,1.10,-0.73,0.00,0.88,0.00,0.00,2
0.25,-0.14,-1.19,3.54,1.34,-0.55,0.00,0.63,0.00,0.00,2
0.26,-0.12,-1.19,2.26,-0.67,-0.85,0.00,0.85,0.00,0.00,2
0.28,-0.10,-1.17,2.08,13.24,-0.67,0.00,0.87,0.10,0.00,2
0.23,-0.10,-1.21,3.36,-0.18,-0.79,0.00,0.86,0.12,0.00,2
0.20,-0.05,-1.21,0.67,-1.10,0.00,0.00,1.05,0.10,0.00,2
0.18,-0.07,-1.20,2.99,8.54,-0.24,0.00,0.89,0.04,0.00,2
0.17,-0.08,-1.22,1.34,0.79,-0.79,0.00,1.29,0.24,0.00,2
0.21,-0.08,-1.23,4.21,-7.51,-0.12,0.00,1.27,0.25,0.00,2
0.26,-0.11,-1.19,5.00,5.37,-1.59,0.00,0.72,0.05,0.00,2
0.25,-0.14,-1.20,7.39,3.23,-0.73,0.00,0.00,0.00,0.00,2
0.27,-0.13,-1.22,3.66,0.92,-0.24,0.00,0.00,0.00,0.00,2
0.25,-0.15,-1.20,4.70,3.23,-1.71,0.00,0.00,0.00,0.00,2
0.27,-0.17,-1.19,10.01,-6.96,-1.59,0.00,0.00,0.00,0.00,2
0.25,-0.10,-1.22,-16.05,-13.31,-5.92,0.00,0.00,0.00,0.00,2
0.29,-0.16,-1.23,10.19,4.52,-0.79,0.00,0.00,0.00,0.00,2
0.28,-0.13,-1.17,8.61,18.07,1.04,0.00,0.00,0.08,0.00,2
0.26,-0.12,-1.20,5.49,0.98,0.61,0.00,0.00,0.09,0.00,2
0.26,-0.12,-1.20,3.66,-0.31,-0.43,0.00,0.00,0.09,0.00,2
0.26,-0.12,-1.19,3.78,0.61,-0.24,0.00,0.00,0.10,0.00,2
0.26,-0.12,-1.18,6.41,2.93,-2.32,0.00,0.00,0.09,0.00,2
0.24,-0.11,-1.22,-0.24,3.48,-1.77,0.00,0.00,0.00,0.00,2
0.27,-0.10,-1.18,-0.24,-2.99,-0.18,0.00,0.00,0.10,0.00,2
0.22,-0.13,-1.22,2.87,3.48,-3.48,0.00,0.00,0.00,0.00,2
0.27,-0.16,-1.17,7.87,-2.75,-0.24,0.00,0.00,0.05,0.00,2
0.26,-0.16,-1.18,3.11,-1.04,-2.08,0.00,0.00,0.00,0.00,2
0.26,-0.14,-1.19,3.42,-3.11,0.12,0.00,0.00,0.00,0.00,2
0.15,-0.04,-1.24,6.53,6.65,-2.01,0.00,0.00,0.09,0.00,2
0.09,0.00,-1.25,4.76,1.28,0.55,0.00,0.00,0.12,0.00,2
0.11,-0.01,-1.25,-2.08,-6.16,-0.92,0.00,0.00,0.11,0.00,2
0.12,0.10,-1.22,11.17,-1.46,-0.67,0.00,0.00,0.00,0.00,2
0.13,-0.06,-1.23,15.69,5.98,-3.66,0.00,0.00,0.00,0.00,2
0.09,-0.06,-1.24,-3.48,-6.59,-0.24,0.00,0.00,0.13,0.00,2
0.20,-0.03,-1.27,13.12,4.09,1.40,0.00,0.00,0.00,0.00,2
0.25,-0.11,-1.19,-3.05,3.23,0.49,0.00,0.00,0.06,0.00,2
0.30,0.04,-1.19,87.65,-32.04,4.64,0.00,0.00,0.06,0.00,2
0.40,0.88,-0.86,48.28,37.17,4.58,0.00,0.00,0.00,0.00,2
0.31,0.91,-0.21,2.69,0.18,-8.48,0.00,0.00,0.00,0.00,2
0.30,0.93,-0.07,9.70,-5.25,-2.44,0.00,0.00,0.17,0.00,2
0.30,0.92,0.01,6.47,-2.32,-0.06,0.00,0.00,0.00,0.00,2
0.30,0.91,0.05,2.69,3.54,-2.56,0.00,0.00,0.05,0.00,2
0.29,0.92,-0.01,3.48,-1.89,-1.40,0.00,0.00,0.00,0.00,2
0.28,0.90,-0.02,0.12,1.95,-3.17,0.00,0.00,0.00,0.00,2
0.31,0.98,-0.05,-5.62,5.49,2.81,0.00,0.00,0.00,0.00,2
0.25,0.94,-0.17,-11.96,16.11,4.39,0.00,0.00,0.00,0.00,2
0.26,0.96,-0.18,-11.29,1.53,-2.69,0.00,0.00,0.00,0.00,2
0.29,0.88,-0.32,6.65,4.70,-2.44,0.00,0.00,0.00,0.00,2
0.26,0.96,-0.24,0.98,0.98,0.31,0.00,0.00,0.00,0.00,2
0.28,0.96,-0.19,5.55,1.95,0.31,0.00,0.00,0.00,0.00,2
0.28,0.95,-0.13,5.25,-3.42,-0.31,0.00,0.00,0.00,0.00,2
0.28,0.95,-0.14,2.32,0.67,-1.04,0.00,0.00,0.06,0.00,2
0.28,0.96,-0.14,0.55,-0.12,0.55,0.00,0.00,0.00,0.00,2
0.25,0.96,-0.30,-1.10,1.65,-0.37,0.00,0.00,0.00,0.00,2
0.25,0.96,-0.32,3.36,-0.73,-0.43,0.00,0.00,0.00,0.00,2
0.25,0.97,-0.32,3.42,-1.40,0.12,0.00,0.00,0.00,0.00,2
0.25,0.92,-0.21,7.93,0.12,-4.09,0.00,0.00,0.10,0.00,2
0.31,1.04,-0.08,76.35,-33.51,6.04,0.00,0.00,0.06,0.00,2
0.56,0.73,0.20,-11.05,21.00,16.36,0.00,0.00,0.00,0.00,2
0.46,0.84,-0.01,-1.77,-2.32,4.33,0.00,0.00,0.14,0.00,2
0.38,0.88,-0.02,0.06,-3.54,3.23,0.00,0.00,0.12,0.00,2
0.36,0.91,-0.03,-0.24,-3.91,2.20,0.00,0.00,0.12,0.00,2
0.34,0.91,-0.03,3.78,-2.20,0.85,0.00,0.00,0.12,0.00,2
0.32,0.92,-0.01,3.42,-3.36,-0.18,0.00,0.00,0.11,0.00,2
0.41,0.75,0.24,24.54,5.68,-9.64,0.00,0.00,0.00,0.00,2
0.50,0.57,0.38,36.50,-6.65,-22.16,0.00,0.00,0.14,0.00,2
0.57,0.25,0.54,0.24,15.01,-0.06,0.00,0.00,0.13,0.00,2
0.79,0.47,0.28,-5.13,11.54,5.07,0.00,0.00,0.00,0.00,2
0.72,0.55,0.14,-2.20,-0.98,3.30,0.00,0.00,0.07,0.00,2
0.51,0.85,0.26,-64.51,-5.13,10.01,0.00,0.00,0.16,0.00,2
0.39,0.68,0.39,4.09,-7.57,7.39,0.00,0.00,0.16,0.00,2
0.38,0.74,0.31,11.54,6.23,3.05,0.00,0.00,0.16,0.00,2
0.45,0.70,0.33,-2.14,2.69,-0.43,0.00,0.00,0.17,0.00,2
0.42,0.69,0.35,1.83,2.56,1.46,0.00,0.00,0.17,0.00,2
0.45,0.68,0.33,4.03,-0.67,0.31,0.00,0.00,0.17,0.00,2
0.46,0.68,0.32,2.32,-0.24,-0.55,0.00,0.00,0.17,0.00,2
0.19,0.05,-1.22,3.91,-1.46,-0.55,0.00,0.00,0.00,0.00,2
0.18,0.06,-1.25,1.46,-0.24,-1.28,0.00,0.00,0.00,0.00,2
0.18,0.06,-1.15,-8.18,-8.42,0.49,0.00,0.00,0.00,0.00,2
0.17,0.04,-1.20,1.04,-3.11,-0.67,0.00,0.00,0.00,0.00,2
0.18,0.05,-1.21,2.81,2.20,-0.85,0.00,0.00,0.00,0.00,2
0.21,0.05,-1.24,0.12,-0.61,-3.48,0.00,0.00,0.00,0.00,2
0.18,0.02,-1.22,2.99,-1.10,-1.16,0.00,0.00,0.00,0.00,2
0.19,0.04,-1.23,2.75,-0.43,-1.28,0.00,0.00,0.00,0.00,2
0.18,0.03,-1.23,3.11,-0.55,-2.01,0.00,0.00,0.00,0.00,2
0.18,-0.06,-1.10,4.76,2.62,8.42,0.00,0.00,0.00,0.00,2
0.19,0.01,-1.25,3.85,4.46,-1.28,0.00,0.00,0.85,0.00,2
0.19,0.01,-1.22,1.22,1.71,-0.49,0.00,0.00,1.06,0.00,2
0.21,0.00,-1.20,3.91,-2.01,-3.11,0.00,0.00,0.87,0.00,2
0.20,0.01,-1.24,-3.97,-2.38,-5.19,0.00,0.00,0.00,0.00,2
0.20,0.00,-1.24,0.12,-0.18,-3.17,0.94,0.00,0.00,0.00,2
0.21,-0.01,-1.22,5.00,-0.55,-1.28,1.06,0.00,0.00,0.00,2
0.19,-0.02,-1.23,-4.52,-9.34,-8.79,0.00,0.00,0.00,0.00,2
0.20,0.06,-1.23,-4.52,-9.58,-1.95,0.00,0.00,0.00,0.00,2
0.14,-0.02,-1.22,0.79,3.48,-0.67,0.00,0.00,0.00,0.00,2
0.09,0.08,-1.24,0.98,0.67,-1.71,0.00,0.00,0.00,0.59,2
0.08,0.05,-1.27,0.85,-0.18,0.24,0.00,0.00,0.00,0.77,2
0.09,0.04,-1.24,0.55,1.10,1.04,0.00,0.00,0.00,0.86,2
0.08,0.04,-1.27,2.99,-0.12,0.49,0.00,0.00,0.00,0.86,2
0.11,0.01,-1.22,1.10,-6.23,3.97,0.00,0.00,0.00,0.00,2
0.23,-0.03,-1.22,7.93,-12.15,11.35,0.00,0.00,0.00,0.00,2
0.32,0.02,-1.19,10.01,8.73,0.67,0.00,0.00,0.00,0.00,2
0.30,-0.01,-1.19,4.21,1.46,-1.04,0.00,0.00,0.00,0.00,2
0.28,-0.01,-1.20,4.15,-0.61,1.10,0.00,0.00,0.00,0.00,2
0.29,0.01,-1.21,-3.54,0.55,-21.18,0.00,0.00,0.00,0.00,2
0.23,0.08,-1.12,21.30,-1.95,24.84,0.00,0.00,0.00,0.00,2
0.17,0.33,-1.15,16.30,2.44,-0.31,0.00,0.00,0.00,0.00,2
0.26,0.32,-1.19,12.76,-10.68,5.00,0.00,0.00,0.00,0.00,2
0.24,0.25,-1.15,10.44,-3.05,-0.06,0.00,0.00,0.00,0.00,2
0.24,0.23,-1.15,21.67,7.26,1.89,0.00,0.00,0.00,0.00,2
0.26,0.06,-1.15,-3.36,30.40,-7.63,0.00,0.00,0.00,0.00,2
0.03,0.14,-1.27,13.61,9.89,-2.87,0.00,0.00,0.00,0.00,2
0.01,0.06,-1.24,-10.56,-8.42,-4.27,0.00,0.00,0.00,0.00,2
0.03,0.04,-1.24,-2.01,-5.62,-0.31,0.00,0.00,0.00,0.00,2
-0.07,0.03,-1.21,15.99,5.25,0.24,0.00,0.00,0.00,0.00,2
0.08,0.12,-1.12,40.95,6.10,5.74,0.00,0.00,0.00,0.00,2
0.02,0.41,-1.15,1.04,-5.74,-1.71,0.00,0.00,0.00,0.00,2
0.08,0.35,-1.18,-4.21,0.73,-2.87,0.00,0.00,0.00,0.00,2
0.03,0.12,-1.22,-3.91,1.40,1.16,0.00,0.00,0.00,0.00,2
0.08,-0.14,-1.22,-39.61,-5.00,-14.28,0.00,0.00,0.00,0.00,2
0.02,0.23,-1.30,26.55,-16.05,4.03,0.00,0.00,0.00,0.00,2
0.05,0.42,-1.14,-4.15,-2.56,0.67,0.00,0.00,0.00,0.00,2
-0.07,0.54,-0.95,13.18,9.28,-10.31,0.00,0.00,0.00,0.00,2
0.00,0.98,-0.21,71.29,-10.56,-12.82,0.00,0.00,0.00,0.00,2
0.05,0.98,0.00,31.49,-6.23,-10.56,0.00,0.00,0.00,0.00,2
0.08,0.88,0.26,12.45,-0.18,-2.14,0.00,0.00,0.12,0.00,2
0.08,0.85,0.26,2.44,-0.61,-2.44,0.00,0.00,0.12,0.00,2
0.02,1.01,-0.08,-54.26,-5.92,11.35,0.00,0.00,0.05,0.00,2
-0.02,1.00,-0.31,-1.83,-0.73,0.24,0.00,0.00,0.00,0.00,2
-0.15,1.01,-0.40,-1.28,-3.23,16.48,0.00,0.00,0.00,0.00,2
-0.21,0.99,-0.42,3.72,-1.77,-1.65,0.00,0.00,0.00,0.00,2
-0.15,1.00,-0.49,-1.04,1.77,-6.65,0.00,0.00,0.00,0.00,2
-0.14,1.00,-0.44,20.26,-0.24,-5.25,0.00,0.00,0.00,0.00,2
-0.13,0.99,-0.43,2.99,-0.06,1.10,0.00,0.00,0.00,0.00,2
-0.10,1.00,-0.43,14.28,0.37,-11.96,0.00,0.00,0.00,0.00,2
-0.07,0.99,-0.46,4.15,-3.23,-1.59,0.00,0.00,0.00,0.00,2
-0.09,0.93,-0.59,-28.50,8.67,1.65,0.00,0.00,0.00,0.00,2
-0.25,0.80,-0.96,-61.71,-11.11,21.73,0.00,0.00,0.00,0.00,2
-0.17,0.51,-0.94,-37.41,63.48,7.93,0.00,0.00,0.00,0.00,2
-0.31,0.30,-1.16,-3.91,8.18,-0.31,0.00,0.00,0.00,0.00,2
-0.34,0.28,-1.16,3.36,-0.61,-0.24,0.00,0.00,0.00,0.00,2
-0.35,0.30,-1.17,2.69,0.79,-0.06,0.00,0.00,0.00,0.00,2
-0.36,0.27,-1.15,1.53,2.75,-0.61,0.00,0.00,0.00,0.00,2
-0.36,0.26,-1.14,4.21,-1.04,-0.31,0.00,0.00,0.00,0.00,2
-0.35,0.26,-1.15,3.23,-2.32,-0.55,0.00,0.00,0.00,0.00,2
-0.29,0.25,-1.14,7.20,-6.10,-5.49,0.00,0.00,0.00,0.00,2
-0.22,0.29,-1.16,10.56,-4.21,-0.67,0.00,0.00,0.00,0.00,2
-0.23,0.35,-1.17,4.21,-1.59,-0.49,0.00,0.00,0.00,0.00,2
-0.25,0.27,-1.17,0.31,0.98,-8.54,0.00,0.00,0.00,0.00,2
-0.26,0.25,-1.19,13.31,-7.87,2.81,0.00,0.00,0.05,0.00,2
-0.27,0.29,-1.17,7.81,-0.92,-0.24,0.00,0.00,0.00,0.00,2
-0.27,0.26,-1.16,7.51,-3.42,-2.93,0.00,0.00,0.00,0.00,2
-0.23,0.27,-1.18,7.93,-3.91,-1.95,0.00,0.00,0.00,0.00,2
-0.24,0.29,-1.19,1.77,3.17,1.04,0.00,0.00,0.00,0.00,2
-0.33,0.28,-1.16,-2.99,3.78,0.12,0.00,0.00,0.00,0.00,2
-0.30,0.25,-1.17,3.66,-0.98,0.12,0.00,0.00,0.00,0.00,2
-0.27,0.25,-1.19,4.58,-0.85,0.18,0.00,0.00,0.00,0.00,2
-0.24,0.29,-1.19,-2.75,6.35,0.12,0.00,0.06,0.00,0.00,2
-0.30,0.26,-1.17,4.58,-2.56,0.61,0.00,0.00,0.00,0.00,2
-0.27,0.24,-1.18,3.36,-0.06,0.55,0.00,0.00,0.00,0.00,2
-0.26,0.25,-1.19,-0.92,3.48,-0.85,0.00,0.11,0.00,0.00,2
-0.24,0.28,-1.18,4.52,-1.28,-1.10,0.00,0.00,0.00,0.00,2
-0.24,0.27,-1.16,5.80,-1.40,-1.65,0.00,0.00,0.00,0.00,2
-0.17,0.26,-1.18,8.97,-4.88,-0.37,0.00,0.00,0.00,0.00,2
-0.23,0.27,-1.20,2.93,0.49,0.37,0.00,0.00,0.00,0.00,2
-0.25,0.25,-1.19,4.64,1.46,0.61,0.00,0.00,0.00,0.00,2
-0.25,0.25,-1.18,0.55,1.46,-0.06,0.00,0.00,0.00,0.00,2
-0.23,0.29,-1.19,3.78,-0.85,-0.24,0.00,0.00,0.00,0.00,2
-0.24,0.28,-1.18,1.34,0.67,-0.12,0.00,0.00,0.00,0.00,2
-0.22,0.29,-1.19,2.01,0.79,0.31,0.00,0.00,0.00,0.00,2
-0.25,0.26,-1.21,1.16,-0.37,-1.71,0.00,0.00,0.00,0.00,2
-0.24,0.32,-1.19,-1.65,2.69,-0.67,0.00,0.00,0.00,0.00,2
-0.22,0.29,-1.18,2.69,-0.49,-0.79,0.00,0.00,0.00,0.00,2
-0.23,0.28,-1.18,1.22,1.71,-0.12,0.00,0.00,0.07,0.00,2
-0.21,0.30,-1.18,4.76,-3.05,-2.56,0.00,0.00,0.00,0.00,2
-0.22,0.28,-1.17,6.90,-2.01,2.44,0.00,0.00,0.00,0.00,2
-0.19,0.31,-1.18,-0.18,3.91,-2.50,0.00,0.00,0.00,0.00,2
-0.23,0.29,-1.21,10.01,-9.09,-5.43,0.00,0.00,0.00,0.00,2
-0.23,0.29,-1.20,1.04,2.08,0.79,0.00,0.00,0.00,0.00,2
-0.21,0.31,-1.18,2.38,0.43,0.06,0.00,0.00,0.00,0.00,2
-0.23,0.28,-1.17,-0.12,3.48,-0.31,0.00,0.00,0.00,0.00,2
-0.23,0.29,-1.18,1.16,1.04,0.24,0.00,0.07,0.00,0.00,2
-0.24,0.29,-1.18,1.83,0.61,-0.61,0.00,0.00,0.00,0.00,2
-0.24,0.28,-1.19,6.10,-5.55,-2.32,0.00,0.00,0.00,0.00,2
-0.22,0.29,-1.17,4.88,-1.95,-0.73,0.00,0.00,0.00,0.00,2
-0.25,0.28,-1.18,3.23,-0.31,0.24,0.00,0.00,0.00,0.00,2
-0.26,0.28,-1.17,5.55,-0.73,-0.43,0.00,0.00,0.00,0.00,2
-0.25,0.26,-1.18,5.49,-2.62,-0.73,0.00,0.00,0.00,0.00,2
-0.24,0.27,-1.17,0.92,2.14,-1.34,0.00,0.00,0.00,0.00,2
-0.27,0.25,-1.19,2.50,0.37,-0.37,0.00,0.00,0.00,0.00,2
-0.24,0.27,-1.18,2.62,0.18,-1.04,0.00,0.00,0.00,0.00,2
-0.25,0.33,-1.21,0.79,2.87,0.12,0.00,0.09,0.00,0.00,2
-0.24,0.29,-1.20,-3.42,2.01,0.06,0.00,0.00,0.00,0.00,2
-0.04,0.32,-1.17,5.62,-21.30,-24.05,0.00,0.00,0.00,0.00,2
0.00,0.36,-1.20,0.06,1.65,0.67,0.00,0.00,0.00,0.00,2
-0.05,0.31,-1.22,2.93,1.95,-0.31,0.00,0.00,0.00,0.00,2
-0.01,0.33,-1.20,1.22,-4.58,-1.10,0.00,0.00,0.00,0.00,2
-0.01,0.32,-1.15,1.71,2.14,-0.43,0.00,0.00,0.00,0.00,2
-0.01,0.33,-1.16,5.07,-7.02,-1.22,0.00,0.00,0.00,0.00,2
0.00,0.33,-1.18,-2.38,-4.09,-1.40,0.00,0.00,0.00,0.00,2
-0.02,0.30,-1.22,11.72,-8.12,0.18,0.00,0.00,0.00,0.00,2
0.03,0.36,-1.22,0.92,0.92,1.10,0.00,0.00,0.00,0.00,2
-0.12,0.42,-1.29,-29.72,28.63,6.41,0.00,0.00,0.08,0.00,2
-0.03,0.30,-1.18,-17.33,0.92,1.04,0.00,0.00,0.00,0.00,2
0.05,0.34,-1.31,19.10,9.03,-7.32,0.00,0.00,0.00,0.00,2
-0.05,0.34,-1.20,-8.24,7.63,0.98,0.00,0.00,0.00,0.00,2
-0.04,0.34,-1.19,5.13,-3.05,0.12,0.00,0.00,0.00,0.00,2
-0.01,0.33,-1.19,-0.37,-0.31,-1.46,0.00,0.00,0.00,0.00,2
-0.02,0.34,-1.20,3.23,0.73,-1.28,0.00,0.00,0.00,0.00,2
0.00,0.34,-1.19,-0.49,1.53,-1.83,0.00,0.00,0.00,0.00,2
0.05,0.36,-1.22,0.00,3.48,0.43,0.00,0.00,0.00,0.00,2
0.03,0.34,-1.18,4.46,0.12,0.06,0.00,0.00,0.00,0.00,2
0.01,0.31,-1.18,-1.28,2.38,-0.67,0.00,0.00,0.00,0.00,2
0.01,0.34,-1.20,-1.65,-0.55,-2.26,0.00,0.00,0.00,0.00,2
-0.01,0.29,-1.19,-1.89,-0.73,2.93,0.00,0.00,0.00,0.00,2
-0.04,0.33,-1.18,4.15,-6.65,-1.53,0.00,0.00,0.00,0.00,2
-0.02,0.35,-1.18,9.34,-3.78,-0.55,0.00,3.40,0.00,0.00,2
0.02,0.36,-1.19,-0.06,3.66,0.37,0.00,3.54,0.00,0.00,2
0.01,0.37,-1.16,-3.97,4.46,-0.06,0.00,0.00,0.06,0.00,2
0.02,0.35,-1.16,2.69,-0.98,1.28,0.00,0.00,0.00,0.00,2
0.02,0.41,-1.17,5.49,-1.59,-1.59,0.00,0.00,0.07,0.00,2
0.07,0.44,-1.16,9.89,-5.86,-1.34,0.00,0.00,0.12,0.00,2
0.01,0.42,-1.18,-4.94,8.00,-0.12,0.00,0.00,0.14,0.00,2
-0.01,0.38,-1.17,2.44,-0.79,0.12,0.00,2.49,0.19,0.00,2
0.01,0.40,-1.15,1.59,1.34,-0.43,0.00,2.26,0.15,0.00,2
-0.03,0.40,-1.19,2.14,2.44,-0.49,0.00,0.00,0.12,0.00,2
-0.05,0.38,-1.18,3.85,-1.71,-1.04,0.00,0.00,0.14,0.00,2
-0.02,0.39,-1.18,-0.55,1.53,-2.20,0.00,0.00,0.14,0.00,2
-0.02,0.38,-1.17,3.85,-1.10,-0.73,0.00,0.00,0.09,0.00,2
-0.05,0.35,-1.17,-4.21,5.31,-0.79,0.00,0.00,0.16,0.00,2
-0.06,0.37,-1.19,4.21,-1.59,-0.43,0.00,0.00,0.13,0.00,2
-0.06,0.36,-1.17,6.35,-0.18,-0.06,0.00,0.00,0.11,0.00,2
-0.02,0.36,-1.16,1.34,-0.31,-0.43,0.00,0.00,0.10,0.00,2
-0.02,0.35,-1.18,1.04,-3.48,-3.72,0.00,0.00,0.07,0.00,2
-0.00,0.38,-1.18,1.71,-2.62,-2.01,0.00,0.00,0.09,0.00,2
-0.04,0.41,-1.16,6.90,-3.91,-1.34,0.00,0.00,0.00,0.00,2
-0.02,0.41,-1.17,-5.43,4.88,1.40,0.00,0.00,0.00,0.00,2
-0.02,0.39,-1.16,4.03,-0.37,-0.98,0.00,0.00,0.08,0.00,2
-0.08,0.35,-1.09,5.80,-0.18,-0.67,0.00,0.00,0.00,0.00,2
-0.05,0.39,-1.17,0.73,3.72,-0.24,0.00,0.00,0.00,0.00,2
-0.04,0.39,-1.18,2.38,0.73,-0.92,0.00,0.00,0.04,0.00,2
-0.07,0.37,-1.15,-1.59,2.87,1.10,0.00,0.00,0.00,0.00,2
-0.01,0.40,-1.15,4.15,4.21,-3.48,0.00,0.00,0.12,0.00,2
-0.09,0.46,-1.13,-2.08,10.80,-1.95,0.00,0.14,0.13,0.00,2
-0.18,0.43,-1.18,6.10,8.12,8.30,0.00,0.00,0.00,0.00,2
-0.23,0.36,-1.18,6.65,-1.16,-3.05,0.00,0.00,0.00,0.00,2
-0.14,0.39,-1.13,2.75,1.34,-0.55,0.00,0.00,0.00,0.00,2
-0.15,0.42,-1.15,1.59,-5.00,-1.34,0.00,0.00,0.00,0.00,2
-0.14,0.44,-1.17,3.97,-0.92,-1.65,0.00,0.00,0.00,0.00,2
-0.13,0.45,-1.16,-1.95,-2.62,-1.65,0.00,0.07,0.00,0.00,2
-0.14,0.43,-1.15,3.42,0.00,-1.28,0.00,0.05,0.00,0.00,2
-0.13,0.44,-1.18,-0.85,-1.22,-1.89,0.00,0.05,0.00,0.00,2
-0.10,0.45,-1.13,2.81,-0.12,0.73,0.00,0.00,0.00,0.00,2
-0.05,0.47,-1.17,2.01,-0.92,-4.15,0.00,0.07,0.00,0.00,2
-0.05,0.48,-1.13,5.43,0.06,0.67,0.00,0.09,0.12,0.00,2
-0.07,0.48,-1.12,2.14,2.56,0.37,0.00,2.40,0.18,0.00,2
-0.05,0.50,-1.11,11.05,-7.69,-0.55,0.00,2.65,0.08,0.00,2
-0.02,0.47,-1.11,-0.92,-0.18,-2.08,0.00,0.00,0.00,0.00,2
-0.09,0.47,-1.15,-8.54,15.44,3.85,0.00,0.00,0.07,0.00,2
-0.10,0.46,-1.13,12.08,-7.75,-2.20,0.00,0.00,0.00,0.00,2
-0.11,0.46,-1.14,10.01,-6.90,-1.46,0.00,0.00,0.09,0.00,2
-0.08,0.46,-1.14,4.88,-1.53,-1.71,0.00,0.00,0.12,0.00,2
-0.07,0.48,-1.14,2.99,-0.98,-0.92,0.00,0.00,0.17,0.00,2
-0.08,0.47,-1.13,1.22,0.85,1.34,0.00,0.00,0.00,0.00,2
-0.10,0.48,-1.14,8.06,-3.54,-2.20,0.00,0.00,0.08,0.00,2
0.06,0.47,-1.09,12.82,2.75,3.11,0.00,0.00,0.10,0.00,2
-0.06,0.42,-1.11,-3.78,7.32,4.64,0.00,0.00,0.16,0.00,2
-0.08,0.49,-1.14,2.38,5.37,-2.08,0.00,0.00,0.16,0.00,2
-0.03,0.56,-1.21,-2.08,15.69,0.55,0.00,0.00,0.00,0.00,2
-0.07,0.49,-1.10,-0.43,-0.67,-0.73,0.00,0.00,0.00,0.00,2
-0.01,0.47,-1.11,-0.61,7.32,0.43,0.00,0.00,0.00,0.00,2
-0.09,0.43,-1.14,5.80,-1.89,-0.12,0.00,0.00,0.00,0.00,2
-0.01,0.50,-1.11,-2.08,2.93,-0.12,0.00,0.00,0.00,0.00,2
-0.18,0.41,-1.23,5.37,-1.34,-0.61,0.00,0.00,0.00,0.00,2
-0.15,0.44,-1.15,1.95,2.01,0.18,0.00,0.00,0.06,0.00,2
-0.12,0.39,-1.13,-4.03,4.33,-0.24,0.00,0.00,0.09,0.00,2
-0.19,0.40,-1.17,1.77,2.08,0.43,0.00,0.00,0.17,0.00,2
-0.19,0.38,-1.14,3.91,-0.31,0.49,0.00,0.00,0.16,0.00,2
-0.19,0.36,-1.16,3.11,0.31,-1.65,0.00,0.00,0.15,0.00,2
-0.21,0.43,-1.16,2.87,-0.31,-2.81,0.00,0.00,0.15,0.00,2
-0.19,0.40,-1.13,2.38,0.61,-0.92,0.00,0.00,0.16,0.00,2
-0.21,0.41,-1.16,1.34,0.37,-0.43,0.00,0.00,0.16,0.00,2
-0.22,0.40,-1.16,6.16,-3.23,0.43,0.00,0.00,0.22,0.00,2
-0.23,0.37,-1.17,0.67,1.89,-0.12,0.00,0.00,0.60,0.00,2
-0.24,0.38,-1.15,0.73,1.59,-0.12,0.00,0.00,0.52,0.00,2
-0.22,0.38,-1.15,0.18,2.01,-5.74,0.00,0.00,0.18,0.00,2
-0.25,0.36,-1.15,3.36,-0.67,0.06,0.00,0.00,0.13,0.00,2
-0.24,0.37,-1.15,1.89,0.43,-0.43,0.81,0.00,0.00,0.00,2
-0.24,0.35,-1.16,0.49,0.67,2.93,0.00,0.00,0.11,0.00,2
-0.26,0.35,-1.15,5.19,-1.22,1.77,0.00,0.00,0.13,0.00,2
-0.23,0.38,-1.15,3.97,2.50,0.43,0.00,0.00,0.13,0.00,2
-0.25,0.40,-1.13,1.22,-0.31,-0.67,0.00,0.00,0.14,0.65,2
-0.24,0.40,-1.14,4.15,-1.46,0.79,0.00,0.00,0.14,0.81,2
-0.24,0.40,-1.16,10.56,-8.36,1.16,0.00,0.00,0.13,0.00,2
-0.24,0.38,-1.14,0.85,3.23,1.10,0.00,0.00,0.13,0.00,2
-0.25,0.37,-1.14,3.05,0.00,-0.85,0.00,0.00,0.12,0.00,2
-0.24,0.38,-1.13,3.78,-1.53,-2.26,0.00,0.00,0.14,0.00,2
-0.24,0.40,-1.14,2.44,0.37,-0.98,0.00,0.00,0.15,0.00,2
-0.26,0.39,-1.13,4.03,0.98,-0.61,0.00,0.00,0.13,0.00,2
-0.25,0.39,-1.13,1.34,0.37,-0.49,0.00,0.00,0.15,0.00,2
-0.23,0.37,-1.14,2.93,-1.34,-1.28,0.00,0.00,0.15,0.00,2
-0.15,0.48,-1.11,8.61,4.88,-0.18,0.00,0.00,0.15,0.00,2
-0.21,0.44,-1.13,1.46,2.44,0.06,0.00,0.00,0.16,0.00,2
-0.24,0.43,-1.14,4.88,-1.34,0.06,0.00,0.00,0.15,0.00,2
-0.23,0.43,-1.12,3.17,0.12,-0.06,0.00,0.00,0.16,0.00,2
-0.23,0.41,-1.13,1.10,0.73,-0.49,0.00,0.00,0.16,0.00,2
-0.23,0.42,-1.13,1.95,1.22,-0.43,0.00,0.00,0.16,0.00,2
-0.22,0.41,-1.13,4.21,-1.04,-0.67,0.00,0.00,0.16,0.00,2
-0.23,0.41,-1.14,1.89,1.22,-0.24,0.00,0.00,0.16,0.00,2
-0.24,0.42,-1.14,4.76,-1.04,-0.55,0.00,0.00,0.16,0.00,2
-0.23,0.42,-1.13,1.83,0.55,-0.31,0.00,0.00,0.16,0.00,2
-0.24,0.41,-1.13,2.69,0.55,-0.06,0.00,0.00,0.17,0.00,2
-0.23,0.42,-1.14,3.23,-0.73,-0.37,0.00,0.00,0.16,0.00,2
-0.24,0.42,-1.13,3.36,-0.92,-0.55,0.00,0.00,0.16,0.00,2
-0.23,0.41,-1.14,3.72,0.24,-0.12,0.00,0.00,0.16,0.00,2
-0.23,0.42,-1.14,4.58,-1.22,-1.22,0.00,0.00,0.16,0.00,2
-0.24,0.41,-1.15,1.71,0.31,-0.43,0.00,0.00,0.16,0.00,2
-0.23,0.42,-1.14,3.85,-1.04,0.18,0.00,0.00,0.16,0.00,2
-0.24,0.41,-1.14,3.11,-0.18,-1.10,0.00,0.00,0.17,0.00,2
-0.23,0.40,-1.14,2.87,-0.12,-0.67,0.00,0.00,0.16,0.00,2
-0.24,0.42,-1.14,2.75,0.12,0.12,0.00,0.00,0.15,0.00,2
-0.24,0.43,-1.14,6.59,-2.01,1.04,0.00,0.00,0.16,0.00,2
-0.25,0.40,-1.14,2.01,0.43,-1.10,0.00,0.00,0.16,0.00,2
-0.26,0.40,-1.16,-6.59,3.78,-0.61,0.00,0.00,0.16,0.00,2
-0.11,0.36,-1.15,-4.58,-8.12,-10.31,0.00,0.00,0.15,0.00,2
-0.01,0.44,-1.17,-0.31,2.93,-1.40,0.00,0.00,0.11,0.00,2
0.01,0.42,-1.15,1.53,0.31,0.55,0.00,0.00,0.16,0.00,2
0.04,0.42,-1.19,-3.42,-6.04,2.38,0.00,0.00,0.12,0.00,2
-0.05,0.36,-1.17,1.04,-0.06,-1.34,0.00,0.00,0.21,0.00,2
-0.04,0.38,-1.18,2.44,1.53,0.00,0.00,0.00,0.20,0.00,2
-0.04,0.40,-1.16,5.07,-0.61,0.73,0.00,0.00,0.20,0.00,2
-0.01,0.41,-1.16,2.87,-0.37,-0.98,0.00,0.06,0.20,0.00,2
-0.01,0.41,-1.16,3.60,-0.79,-0.85,0.00,0.06,0.18,0.00,2
-0.04,0.40,-1.16,4.33,-0.43,1.04,0.00,0.00,0.18,0.00,2
-0.05,0.40,-1.17,5.55,-2.26,-0.61,0.00,0.06,0.18,0.00,2
-0.04,0.43,-1.14,0.49,2.14,-0.31,0.00,0.00,0.18,0.00,2
-0.02,0.40,-1.15,2.14,1.46,-0.12,0.00,0.00,0.17,0.00,2
-0.02,0.41,-1.16,3.48,-1.46,-2.32,0.00,0.00,0.18,0.00,2
-0.04,0.40,-1.17,1.34,1.34,0.43,0.00,0.07,0.19,0.00,2
0.01,0.41,-1.16,-1.34,5.74,-1.65,0.00,0.00,0.18,0.00,2
-0.02,0.41,-1.14,-0.85,5.31,1.16,0.00,0.00,0.17,0.00,2
-0.01,0.43,-1.15,5.55,-3.05,-0.98,0.00,0.06,0.18,0.00,2
-0.00,0.43,-1.15,2.87,0.79,-0.12,0.00,0.00,0.17,0.00,2
0.04,0.43,-1.14,1.46,1.59,-0.73,0.00,0.00,0.18,0.00,2
-0.01,0.41,-1.14,-1.40,3.97,0.79,0.00,0.11,0.18,0.00,2
-0.01,0.43,-1.16,1.04,0.00,-1.04,0.00,0.00,0.18,0.00,2
-0.01,0.42,-1.15,1.46,0.73,-2.38,0.00,0.00,0.17,0.00,2
0.00,0.42,-1.15,3.97,-0.73,-1.34,0.00,0.00,0.18,0.00,2
-0.02,0.44,-1.18,7.20,-4.21,-0.24,0.00,0.00,0.00,0.00,2
-0.01,0.41,-1.16,-0.31,2.44,-0.61,0.00,0.00,0.17,0.00,2
-0.04,0.41,-1.17,3.05,0.12,0.00,0.00,0.00,0.17,0.00,2
-0.01,0.40,-1.16,8.48,-5.31,-1.10,0.00,0.00,0.13,0.00,2
-0.03,0.40,-1.17,0.79,2.81,-0.06,0.00,0.00,0.16,0.00,2
-0.02,0.42,-1.17,6.47,-4.27,-1.77,0.00,0.00,0.15,0.00,2
-0.07,0.40,-1.20,6.77,-4.88,-0.24,0.00,0.00,0.14,0.00,2
-0.05,0.38,-1.17,0.98,3.48,-0.85,0.00,0.00,0.16,0.00,2
-0.09,0.40,-1.18,7.63,-4.58,-0.92,0.00,0.00,0.10,0.00,2
-0.07,0.37,-1.17,7.87,-4.03,-0.85,0.00,0.00,0.19,0.00,2
-0.06,0.42,-1.16,0.43,0.85,-0.49,0.00,0.00,0.17,0.00,2
-0.07,0.40,-1.16,2.20,0.37,-0.79,0.00,0.00,0.16,0.00,2
-0.04,0.41,-1.17,4.82,1.28,-0.31,0.00,0.00,0.18,0.00,2
0.02,0.58,-1.05,-2.26,1.65,2.14,0.00,0.00,0.07,0.00,2
0.02,0.57,-1.06,1.34,-0.73,0.24,0.00,0.00,0.05,0.00,2
-0.02,0.55,-1.09,2.01,-0.06,-0.24,0.00,0.00,0.06,0.00,2
-0.01,0.55,-1.09,3.97,0.73,-0.37,0.00,0.00,0.06,0.00,2
-0.01,0.55,-1.08,3.48,0.61,-0.31,0.00,0.00,0.06,0.00,2
-0.02,0.55,-1.09,2.08,0.18,-0.18,0.00,0.00,0.07,0.00,2
-0.02,0.54,-1.09,0.00,2.14,-0.06,0.00,0.00,0.00,0.00,2
-0.01,0.54,-1.08,3.48,0.24,-0.31,0.00,0.00,0.05,0.00,2
-0.01,0.52,-1.09,8.48,-3.78,-2.01,0.00,0.00,0.06,0.00,2
-0.02,0.54,-1.10,2.75,0.18,-0.85,0.00,0.00,0.06,0.00,2
-0.03,0.53,-1.09,2.38,0.18,-0.43,0.00,0.00,0.00,0.00,2
-0.04,0.52,-1.10,1.95,0.73,-0.73,0.00,0.00,0.05,0.00,2
-0.04,0.52,-1.10,5.98,-10.07,-1.77,0.00,0.00,0.05,0.00,2
-0.03,0.48,-1.15,-5.80,0.18,2.62,0.00,0.00,0.00,0.00,2
-0.02,0.41,-1.14,8.42,-3.42,-0.18,0.00,0.00,0.00,0.00,2
-0.03,0.44,-1.14,1.34,0.43,-2.87,0.00,0.00,0.00,0.00,2
0.01,0.47,-1.18,-0.24,5.31,-0.98,0.00,0.00,0.00,0.00,2
-0.01,0.57,-1.23,-42.54,51.03,27.65,0.00,0.00,0.17,0.00,2
-0.01,0.45,-1.16,4.76,-1.53,0.12,0.00,0.00,0.13,0.00,2
-0.00,0.47,-1.13,-3.11,10.13,0.85,0.00,0.00,0.18,0.00,2
-0.00,0.46,-1.13,5.43,-1.65,-1.83,0.00,0.00,0.16,0.00,2
-0.02,0.45,-1.17,-1.10,2.62,0.55,0.00,0.00,0.14,0.00,2
-0.02,0.48,-1.13,12.51,-7.51,-1.28,0.00,0.00,0.19,0.00,2
0.03,0.48,-1.17,-3.78,3.78,-2.14,0.00,0.00,0.10,0.00,2
-0.04,0.43,-1.15,2.38,0.67,-0.61,0.00,0.00,0.05,0.00,2
-0.01,0.45,-1.14,7.69,-6.10,-1.53,0.00,0.00,0.05,0.00,2
0.02,0.47,-1.13,1.89,0.55,-1.28,0.00,0.00,0.07,0.00,2
-0.00,0.44,-1.13,3.72,-1.77,-1.16,0.00,0.00,0.00,0.00,2
0.04,0.49,-1.13,1.04,3.66,1.16,0.00,0.00,0.19,0.00,2
0.01,0.46,-1.12,3.17,-1.34,-0.92,0.00,0.00,0.19,0.00,2
0.00,0.49,-1.14,9.46,-6.23,-1.65,0.00,0.00,0.12,0.00,2
0.00,0.48,-1.13,1.28,1.22,-0.61,0.00,0.00,0.05,0.00,2
-0.00,0.47,-1.12,1.40,2.38,-0.12,0.00,0.00,0.06,0.00,2
-0.03,0.44,-1.14,3.66,-0.61,0.61,0.00,0.00,0.10,0.00,2
-0.02,0.45,-1.15,4.94,-1.16,-0.55,0.00,0.00,0.08,0.00,2
-0.01,0.46,-1.15,0.24,3.42,2.50,0.00,0.00,0.06,0.00,2
-0.01,0.46,-1.14,3.60,-2.08,-0.92,0.00,0.00,0.00,0.00,2
-0.00,0.46,-1.14,3.05,0.49,-0.73,0.00,0.00,0.12,0.00,2
-0.01,0.46,-1.15,4.58,-2.14,-1.77,0.00,0.00,0.12,0.00,2
0.00,0.47,-1.14,4.03,-0.98,-0.43,0.00,0.00,0.04,0.00,2
0.04,0.48,-1.14,3.54,-1.28,-2.26,0.00,0.00,0.17,0.00,2
-0.03,0.46,-1.18,7.63,-6.10,-3.30,0.00,0.05,0.15,0.00,2
0.06,0.47,-1.14,1.46,-1.53,-0.85,0.00,0.05,0.17,0.00,2
0.06,0.46,-1.14,5.31,-1.22,-1.04,0.00,0.00,0.11,0.00,2
0.05,0.45,-1.15,2.50,0.73,-0.67,0.00,0.00,0.00,0.00,2
0.04,0.42,-1.14,3.36,-0.12,-0.61,0.00,0.09,0.13,0.00,2
0.07,0.45,-1.14,5.31,-1.89,-1.10,0.00,0.00,0.15,0.00,2
0.06,0.45,-1.14,3.11,0.67,-1.22,0.00,0.10,0.10,0.00,2
0.05,0.46,-1.15,2.08,-0.73,-0.37,0.00,0.00,0.11,0.00,2
0.09,0.47,-1.12,5.31,-0.98,-1.71,0.00,0.00,0.08,0.00,2
0.07,0.46,-1.13,0.98,0.92,0.79,0.00,0.00,0.17,0.00,2
0.09,0.48,-1.12,0.18,5.98,1.10,0.00,0.00,0.09,0.00,2
0.07,0.47,-1.12,4.88,-2.44,-0.67,0.00,0.00,0.10,0.00,2
0.13,0.50,-1.10,3.36,-0.98,-1.89,0.00,0.00,0.16,0.00,2
0.10,0.57,-1.09,15.08,-12.76,-1.77,0.00,0.00,0.16,0.00,2
0.08,0.47,-1.10,1.95,-0.06,1.83,0.00,0.10,0.17,0.00,2
0.09,0.48,-1.13,3.91,0.43,-0.73,0.00,0.00,0.16,0.00,2
0.06,0.46,-1.13,2.01,0.49,-0.49,0.00,0.05,0.19,0.00,2
0.06,0.51,-1.20,3.66,-11.35,-10.68,0.00,0.06,0.16,0.00,2
0.15,0.36,-1.12,2.44,-0.55,-1.77,0.00,0.06,0.18,0.00,2
0.13,0.37,-1.21,1.77,1.59,0.00,0.00,0.00,0.16,0.00,2
0.16,0.40,-1.15,3.91,-0.85,0.49,0.00,0.00,0.15,0.00,2
0.21,0.41,-1.26,10.19,-5.62,0.55,0.00,0.08,0.15,0.00,2
0.14,0.42,-1.15,1.53,2.44,0.12,0.00,0.00,0.18,0.00,2
0.15,0.43,-1.13,5.49,-1.95,-0.79,0.00,0.07,0.19,0.00,2
0.15,0.43,-1.14,2.01,-0.67,-0.55,0.00,0.00,0.17,0.00,2
0.15,0.40,-1.14,5.43,0.12,1.71,0.00,0.00,0.13,0.00,2
0.16,0.42,-1.14,0.24,2.69,0.18,0.00,0.00,0.15,0.00,2
0.15,0.40,-1.14,3.17,-0.24,-0.67,0.00,0.00,0.16,0.00,2
0.15,0.44,-1.16,1.89,0.73,-3.17,0.00,0.00,0.16,0.00,2
0.16,0.41,-1.11,4.46,0.12,0.55,0.00,0.00,0.12,0.00,2
0.14,0.42,-1.14,2.38,0.18,-1.04,0.00,0.00,0.15,0.00,2
0.14,0.43,-1.16,5.25,-1.40,-0.67,0.00,0.00,0.14,0.00,2
0.15,0.44,-1.12,2.93,0.37,-0.98,0.00,0.00,0.08,0.00,2
0.18,0.49,-1.13,13.79,-8.54,-1.16,0.00,0.00,0.10,0.00,2
0.13,0.43,-1.12,1.22,3.11,2.08,0.00,0.00,0.16,0.00,2
0.14,0.43,-1.13,-1.89,3.72,0.67,0.00,0.00,0.17,0.00,2
0.10,0.44,-1.16,-18.86,20.69,1.34,0.00,0.00,0.15,0.00,2
0.14,0.43,-1.17,11.35,-7.57,2.50,0.00,0.00,0.06,0.00,2
0.08,0.41,-1.14,-3.30,5.43,-0.55,0.00,0.00,0.19,0.00,2
0.09,0.40,-1.16,2.69,2.08,0.43,0.00,0.00,0.18,0.00,2
0.13,0.37,-1.07,-27.77,28.99,4.15,0.00,0.00,0.11,0.00,2
0.05,0.42,-1.13,4.33,0.98,-1.04,0.00,0.00,0.18,0.00,2
-0.00,0.41,-1.14,9.09,-5.37,-2.20,0.00,0.00,0.00,0.00,2
-0.02,0.41,-1.16,1.04,3.05,-1.65,0.00,0.00,0.18,0.00,2
-0.03,0.39,-1.17,-2.08,3.30,0.67,0.00,0.00,0.15,0.00,2
0.00,0.41,-1.17,-1.95,4.09,-2.20,0.00,0.00,0.16,0.00,2
-0.09,0.26,-1.06,9.16,1.22,3.54,0.00,0.00,0.15,0.00,2
-0.00,0.46,-1.17,-2.20,-1.04,-3.66,0.00,0.00,0.17,0.00,2
0.01,0.40,-1.16,10.80,-0.37,3.91,0.00,0.00,0.00,0.00,2
-0.07,0.45,-1.15,-7.08,10.50,-0.12,0.00,0.00,0.04,0.00,2
-0.07,0.38,-1.14,-5.37,8.30,-0.18,0.00,0.00,0.18,0.00,2
-0.17,0.39,-1.19,-12.39,14.47,6.10,0.00,0.00,0.17,0.00,2
-0.13,0.38,-1.16,4.58,1.40,-0.55,0.00,0.00,0.18,0.00,2
-0.19,0.34,-1.18,1.83,6.65,1.65,0.00,0.00,0.17,0.00,2
-0.23,0.34,-1.16,-2.69,5.25,-1.40,0.00,0.00,0.17,0.00,2
-0.17,0.37,-1.14,10.44,-6.04,-1.77,0.00,0.00,0.17,0.00,2
-0.19,0.41,-1.16,1.16,1.89,-0.18,0.00,0.00,0.16,0.00,2
-0.20,0.42,-1.15,3.36,-0.06,-0.12,0.00,0.00,0.15,0.00,2
-0.21,0.42,-1.17,2.44,0.55,-0.24,0.00,0.00,0.15,0.00,2
-0.22,0.42,-1.12,0.73,1.83,1.16,0.00,0.00,0.14,0.00,2
-0.21,0.42,-1.15,2.81,-0.31,-0.24,0.00,0.00,0.13,0.00,2
-0.20,0.41,-1.13,2.14,0.49,-0.67,0.00,0.00,0.14,0.00,2
-0.20,0.42,-1.16,4.94,-3.17,-0.18,0.00,0.00,0.08,0.00,2
-0.20,0.42,-1.15,1.95,1.77,-0.43,0.00,0.00,0.11,0.00,2
-0.21,0.42,-1.15,0.85,-2.87,-0.61,0.00,0.00,0.12,0.00,2
-0.14,0.17,-1.18,1.53,4.52,-3.30,0.00,0.00,0.16,0.00,2
-0.16,0.31,-1.22,6.04,-0.55,0.06,0.00,0.00,0.15,0.00,2
-0.14,0.29,-1.19,3.72,-0.61,-0.55,0.00,0.00,0.14,0.00,2
-0.12,0.34,-1.20,5.86,-2.50,-0.06,0.00,0.00,0.12,0.00,2
-0.22,0.22,-1.22,2.44,-2.38,0.73,0.00,0.00,0.14,0.00,2
-0.16,0.25,-1.20,12.27,-5.92,-1.83,0.00,0.00,0.11,0.00,2
-0.16,0.28,-1.21,0.24,2.62,-1.10,0.00,0.00,0.09,0.00,2
-0.18,0.24,-1.21,-0.79,2.62,0.24,0.00,0.00,0.08,0.00,2
-0.20,0.23,-1.20,4.46,-0.67,-1.10,0.00,0.00,0.13,0.00,2
-0.19,0.24,-1.19,1.28,1.40,-0.61,0.00,0.00,0.12,0.00,2
-0.19,0.25,-1.19,2.87,0.24,-0.43,0.00,0.00,0.09,0.00,2
-0.19,0.26,-1.20,3.05,0.61,-0.73,0.00,0.00,0.09,0.00,2
-0.17,0.28,-1.18,4.46,1.71,-2.32,0.00,0.00,0.00,0.00,2
-0.17,0.29,-1.19,2.69,1.59,-0.67,0.00,0.00,0.00,0.00,2
-0.17,0.29,-1.18,3.48,-0.18,-0.55,0.00,0.00,0.05,0.00,2
-0.20,0.29,-1.19,1.71,3.72,-1.22,0.00,0.00,0.00,0.00,2
-0.20,0.30,-1.21,7.93,-0.18,-3.05,0.00,0.00,0.00,0.00,2
-0.21,0.30,-1.19,4.46,-0.85,0.06,0.00,0.00,0.00,0.00,2
-0.20,0.31,-1.18,4.39,-0.79,-0.43,0.00,0.00,0.00,0.00,2
-0.20,0.30,-1.18,2.75,0.31,-0.61,0.00,0.00,0.00,0.00,2
-0.21,0.30,-1.18,4.21,-1.65,-0.06,0.00,0.00,0.00,0.00,2
-0.18,0.32,-1.19,-0.55,-0.37,-0.31,0.00,0.00,0.00,0.00,2
-0.19,0.30,-1.19,3.66,-1.77,0.24,0.00,0.00,0.00,0.00,2
-0.17,0.32,-1.20,1.65,1.83,-0.37,0.00,0.00,0.00,0.00,2
-0.18,0.31,-1.18,4.88,-1.59,-1.16,0.00,0.00,0.00,0.00,2
-0.18,0.33,-1.18,3.72,-0.24,-0.49,0.00,0.00,0.00,0.56,2
-0.20,0.33,-1.19,2.38,0.12,-0.18,0.00,0.00,0.00,0.56,2
-0.19,0.34,-1.20,0.24,3.05,-0.24,0.00,0.00,0.00,0.00,2
-0.20,0.30,-1.18,-2.26,4.15,-1.59,0.00,0.00,0.00,0.00,2
-0.21,0.29,-1.18,4.64,-0.06,-1.83,0.00,0.00,0.00,0.00,2
-0.22,0.29,-1.18,2.56,1.59,-0.55,0.00,0.00,0.52,0.00,2
-0.23,0.31,-1.18,1.83,0.73,-0.67,0.00,0.00,0.55,0.00,2
-0.24,0.29,-1.19,0.49,1.10,-0.12,0.00,0.00,0.49,0.00,2
-0.23,0.29,-1.17,3.30,0.12,1.04,0.00,0.00,0.28,0.00,2
-0.24,0.31,-1.17,3.72,0.67,-2.20,0.00,0.00,0.00,0.00,2
-0.22,0.29,-1.16,4.33,0.31,-0.73,0.00,0.00,0.00,0.00,2
-0.24,0.29,-1.18,1.59,1.10,-0.37,0.00,0.00,0.00,0.00,2
-0.24,0.30,-1.19,1.04,0.67,-0.73,0.61,0.00,0.00,0.00,2
-0.24,0.29,-1.18,3.11,0.55,-0.43,0.66,0.00,0.00,0.00,2
-0.25,0.28,-1.18,1.83,1.10,-1.10,0.74,0.00,0.00,0.00,2
-0.25,0.29,-1.18,4.64,-0.98,-0.49,0.75,0.00,0.00,0.00,2
-0.24,0.29,-1.18,2.14,0.85,-0.73,0.15,0.00,0.00,0.00,2
-0.26,0.29,-1.18,0.92,1.04,-0.24,0.00,0.00,0.00,0.00,2
-0.26,0.29,-1.19,6.29,-2.81,-1.28,0.00,0.00,0.00,0.00,2
-0.27,0.28,-1.19,1.95,0.67,-1.34,0.00,0.00,0.00,0.00,2
-0.26,0.28,-1.19,1.89,0.98,-1.16,0.00,0.00,0.00,0.00,2
-0.28,0.27,-1.19,-0.12,1.83,-1.53,0.00,0.00,0.00,0.00,2
-0.27,0.26,-1.16,1.59,2.44,-1.10,0.00,0.00,0.00,0.00,2
-0.29,0.26,-1.18,5.68,-1.77,-1.04,0.00,0.00,0.00,0.00,2
-0.28,0.24,-1.18,3.42,0.43,0.73,0.00,0.00,0.00,0.00,2
-0.29,0.22,-1.18,8.12,-3.85,1.04,0.00,0.00,0.14,0.00,2
-0.29,0.23,-1.18,0.12,3.60,-1.59,0.00,0.00,0.16,0.00,2
-0.28,0.23,-1.18,3.17,0.55,1.59,0.00,0.00,0.16,0.00,2
-0.26,0.23,-1.19,3.05,1.40,-0.92,0.00,0.00,0.16,0.00,2
-0.28,0.24,-1.18,1.22,1.95,-0.67,0.00,0.00,0.16,0.00,2
-0.29,0.24,-1.17,4.64,-1.22,-0.55,0.00,0.00,0.16,0.00,2
-0.29,0.23,-1.18,2.99,-0.37,-0.18,0.00,0.00,0.16,0.00,2
-0.29,0.24,-1.18,5.74,-1.59,0.00,0.00,0.00,0.12,0.00,2
-0.28,0.24,-1.18,5.49,-0.79,-0.49,0.00,0.00,0.12,0.00,2
-0.29,0.25,-1.18,2.93,-1.28,0.06,0.00,0.00,0.12,0.00,2
-0.29,0.24,-1.19,5.43,-1.95,-1.10,0.00,0.00,0.12,0.00,2
-0.28,0.24,-1.19,1.46,-0.12,1.22,0.00,0.00,0.12,0.00,2
-0.29,0.21,-1.17,0.06,2.62,-2.01,0.00,0.00,0.13,0.00,2
-0.23,0.21,-1.17,12.27,-4.39,-0.18,0.00,0.00,0.15,0.00,2
-0.32,0.18,-1.19,-5.86,4.70,-2.20,0.00,0.00,0.16,0.00,2
-0.30,0.24,-1.21,-0.43,-0.67,0.37,0.00,0.00,0.14,0.00,2
-0.29,0.26,-1.18,6.47,-7.51,0.85,0.00,0.00,0.16,0.00,2
-0.22,0.26,-1.18,5.62,0.43,-0.67,0.00,0.00,0.14,0.00,2
-0.19,0.33,-1.17,12.76,-8.73,-1.95,0.00,0.00,0.00,0.00,2
-0.23,0.29,-1.19,4.15,-0.73,-0.06,0.00,0.00,0.13,0.00,2
-0.23,0.28,-1.19,4.09,-0.37,-1.16,0.00,0.00,0.12,0.00,2
-0.20,0.30,-1.16,4.15,-2.01,-0.92,0.00,0.00,0.12,0.00,2
-0.19,0.30,-1.18,12.76,-6.41,-1.71,0.00,0.00,0.13,0.00,2
-0.22,0.29,-1.21,-5.68,6.90,1.59,0.00,0.00,0.09,0.00,2
-0.19,0.31,-1.18,4.03,0.73,-0.49,0.00,0.00,0.09,0.00,2
-0.18,0.31,-1.19,3.36,-0.12,-1.53,0.00,0.00,0.09,0.00,2
-0.17,0.33,-1.17,0.92,2.08,-0.55,0.00,0.00,0.07,0.00,2
-0.20,0.32,-1.19,4.33,-0.49,-0.73,0.00,0.00,0.10,0.00,2
-0.20,0.32,-1.18,0.24,2.26,-1.34,0.00,0.00,0.11,0.00,2
-0.17,0.33,-1.18,5.07,-0.79,-0.18,0.00,0.00,0.10,0.00,2
-0.21,0.29,-1.18,0.06,3.17,0.06,0.00,0.05,0.07,0.00,2
-0.25,0.27,-1.20,6.16,-3.11,0.00,0.00,0.00,0.06,0.00,2
-0.19,0.30,-1.19,2.99,-1.10,-1.95,0.00,0.77,0.08,0.00,2
-0.16,0.34,-1.17,6.84,-1.53,0.55,0.00,0.00,0.00,0.00,2
-0.16,0.33,-1.19,3.54,-0.73,-0.49,0.00,0.00,0.07,0.00,2
-0.16,0.35,-1.19,0.67,2.50,-0.31,0.00,0.00,0.00,0.00,2
-0.17,0.35,-1.17,3.36,0.43,-0.37,0.00,0.00,0.00,0.00,2
-0.14,0.37,-1.18,-0.55,2.56,1.71,0.00,0.00,0.11,0.00,2
-0.16,0.34,-1.17,-8.79,11.41,2.50,0.00,0.00,0.00,0.00,2
-0.18,0.31,-1.19,-3.11,5.62,-0.73,0.00,0.00,0.00,0.00,2
-0.14,0.36,-1.17,2.26,1.89,-0.85,0.00,0.00,0.07,0.00,2
-0.15,0.34,-1.16,-7.08,9.77,4.94,0.00,0.00,0.00,0.00,2
-0.18,0.34,-1.18,-9.64,12.57,0.92,0.00,0.00,0.11,0.00,2
-0.21,0.32,-1.19,3.11,0.31,-0.49,0.00,2.75,0.16,0.00,2
-0.20,0.32,-1.18,-0.24,3.23,-0.18,0.00,3.04,0.14,0.00,2
-0.19,0.34,-1.18,3.85,-0.79,-0.79,0.00,3.10,0.16,0.00,2
-0.18,0.34,-1.17,-1.83,3.36,0.24,0.00,3.07,0.17,0.00,2
-0.17,0.35,-1.17,3.72,0.31,-1.16,0.00,3.97,0.13,0.00,2
-0.20,0.33,-1.18,2.93,0.67,-0.06,0.00,3.13,0.15,0.00,2
-0.19,0.34,-1.17,0.92,2.38,-0.85,0.00,3.16,0.13,0.00,2
-0.19,0.34,-1.17,5.13,-2.20,-0.49,0.00,3.86,0.12,0.00,2
-0.18,0.35,-1.17,2.56,0.85,-0.55,0.00,3.22,0.06,0.00,2
-0.22,0.32,-1.18,-5.19,6.35,0.43,0.00,2.83,0.11,0.00,2
-0.19,0.34,-1.20,14.95,-17.27,0.31,0.00,3.19,0.21,0.00,2
-0.21,0.29,-1.19,8.61,-5.74,-1.10,0.00,0.00,0.13,0.00,2
-0.11,0.36,-1.15,7.14,-4.27,-1.34,0.00,0.00,0.12,0.00,2
-0.14,0.37,-1.17,6.53,-1.40,-2.20,0.00,0.00,0.06,0.00,2
-0.15,0.35,-1.19,1.46,1.71,0.12,0.00,0.00,0.00,0.00,2
-0.16,0.36,-1.17,8.85,-5.31,-1.77,0.00,0.00,0.06,0.00,2
-0.13,0.36,-1.16,0.49,1.83,0.55,0.00,0.00,0.05,0.00,2
-0.15,0.36,-1.13,22.46,-14.53,1.16,0.00,0.00,0.11,0.00,2
-0.13,0.39,-1.14,0.06,-3.78,-11.90,0.00,0.00,0.09,0.00,2
-0.18,0.33,-1.19,18.80,-9.16,0.98,0.00,0.00,0.00,0.00,2
-0.16,0.36,-1.16,4.76,-18.01,1.34,0.00,3.32,0.12,0.00,2
-0.08,0.51,-1.15,5.25,-5.68,-3.54,0.00,3.20,0.11,0.00,2
-0.07,0.48,-1.22,15.01,-10.86,-8.06,0.00,3.97,0.24,0.00,2
-0.17,0.31,-1.17,6.96,-2.81,0.61,0.00,3.35,0.17,0.00,2
-0.11,0.38,-1.16,8.48,-3.66,-0.61,0.00,3.29,0.15,0.00,2
-0.13,0.38,-1.16,4.33,-1.16,-0.37,0.00,3.32,0.15,0.00,2
-0.12,0.39,-1.15,1.71,1.71,-1.89,0.00,3.22,0.09,0.00,2
-0.12,0.38,-1.16,-0.24,2.87,-0.31,0.00,3.17,0.18,0.00,2
-0.10,0.40,-1.16,-2.99,5.74,-0.06,0.00,3.82,0.00,0.00,2
-0.16,0.36,-1.19,2.81,0.67,-0.18,0.00,3.37,0.00,0.00,2
-0.13,0.39,-1.16,1.10,1.34,0.37,0.00,3.17,0.11,0.00,2
-0.16,0.37,-1.16,-0.31,3.05,-0.79,0.00,3.91,0.00,0.00,2
-0.15,0.37,-1.18,0.31,2.20,0.37,0.00,3.18,0.00,0.00,2
-0.14,0.38,-1.17,11.23,-7.14,-1.40,0.00,3.22,0.00,0.00,2
-0.14,0.38,-1.17,1.77,1.04,-0.12,0.00,3.17,0.00,0.00,2
-0.13,0.37,-1.17,3.91,-0.55,0.37,0.00,3.14,0.05,0.00,2
-0.13,0.38,-1.18,3.11,-0.92,-0.85,0.00,4.05,0.00,0.00,2
-0.13,0.38,-1.17,0.73,1.77,-1.40,0.00,3.27,0.00,0.00,2
-0.13,0.33,-1.15,-5.43,7.57,1.04,0.00,3.17,0.00,0.00,2
-0.13,0.38,-1.15,1.83,1.10,-0.12,0.00,3.16,0.00,0.00,2
-0.14,0.34,-1.17,9.40,-6.23,-0.92,0.00,3.05,0.00,0.00,2
-0.14,0.35,-1.17,7.32,-6.77,6.59,0.00,3.17,0.00,0.00,2
-0.23,0.28,-1.20,1.34,0.98,1.04,0.00,3.22,0.11,0.00,2
-0.23,0.27,-1.19,5.07,-1.04,-0.61,0.00,3.16,0.10,0.00,2
-0.21,0.27,-1.18,5.19,-3.11,-1.40,0.00,3.20,0.11,0.00,2
-0.20,0.31,-1.19,14.59,-8.61,0.12,0.00,3.37,0.07,0.00,2
-0.20,0.32,-1.18,0.49,1.53,-0.43,0.00,3.25,0.11,0.00,2
-0.20,0.30,-1.21,-1.95,3.60,-1.16,0.00,4.10,0.17,0.00,2
-0.22,0.32,-1.20,7.45,-3.54,-3.11,0.00,3.24,0.09,0.00,2
-0.21,0.30,-1.20,5.43,-2.32,-0.12,0.00,3.24,0.06,0.00,2
-0.20,0.29,-1.19,5.74,-1.65,-0.31,0.00,3.31,0.05,0.00,2
-0.19,0.33,-1.19,5.74,-2.01,-1.04,0.00,3.27,0.05,0.00,2
-0.18,0.33,-1.18,3.91,-0.67,-0.92,0.00,0.00,0.00,0.00,2
-0.16,0.34,-1.17,-3.11,7.93,-1.53,0.00,0.00,0.00,0.00,2
-0.18,0.33,-1.17,4.76,-1.89,-0.43,0.00,0.00,0.00,0.00,2
-0.20,0.31,-1.19,-0.18,2.62,-0.85,0.00,0.00,0.00,0.00,2
-0.20,0.29,-1.18,2.01,0.79,0.00,0.00,0.00,0.00,0.00,2
-0.20,0.29,-1.18,6.04,-1.53,-1.77,0.00,0.00,0.00,0.00,2
-0.20,0.30,-1.18,3.91,-0.67,-0.06,0.00,0.00,0.00,0.00,2
-0.23,0.28,-1.20,2.99,0.43,0.98,0.00,0.00,0.00,0.00,2
-0.22,0.28,-1.17,2.69,1.40,-0.92,0.00,0.00,0.00,0.00,2
-0.23,0.28,-1.19,3.54,-1.40,-0.79,0.00,0.00,0.12,0.00,2
-0.21,0.30,-1.18,-1.40,2.44,0.18,0.00,2.39,0.06,0.00,2
-0.20,0.29,-1.18,1.71,1.16,-1.16,0.00,0.00,0.00,0.00,2
-0.21,0.29,-1.18,5.07,-0.73,-0.55,0.00,0.00,0.15,0.00,2
-0.21,0.30,-1.18,4.09,-0.31,-0.67,0.00,0.00,0.14,0.00,2
-0.21,0.29,-1.18,2.75,0.31,-0.43,0.00,0.00,0.15,0.00,2
-0.21,0.30,-1.18,0.79,2.75,0.06,0.00,0.00,0.15,0.00,2
-0.19,0.27,-1.21,5.19,1.04,-2.50,0.00,0.00,0.14,0.00,2
-0.22,0.30,-1.18,2.69,1.65,-0.49,0.00,0.00,0.13,0.00,2
-0.22,0.30,-1.18,3.60,0.18,-0.06,0.00,0.00,0.12,0.00,2
-0.23,0.30,-1.17,4.27,-0.49,-0.55,0.00,0.00,0.11,0.00,2
-0.19,0.31,-1.16,3.11,0.00,-0.85,0.00,2.58,0.18,0.00,2
-0.23,0.29,-1.18,1.59,1.59,-0.31,0.00,2.93,0.18,0.00,2
-0.23,0.30,-1.17,1.53,1.22,-0.12,0.00,0.00,0.13,0.00,2
-0.22,0.30,-1.20,4.52,-1.34,-0.31,0.00,0.00,0.12,0.00,2
-0.22,0.31,-1.18,4.94,-1.53,-0.06,0.00,0.18,0.13,0.00,2
-0.21,0.31,-1.18,2.99,0.31,-0.98,0.00,0.00,0.07,0.00,2
-0.23,0.29,-1.18,0.31,2.32,0.06,0.00,0.37,0.08,0.00,2
-0.24,0.28,-1.19,8.24,-4.27,-0.85,0.00,0.00,0.11,0.00,2
-0.24,0.27,-1.19,1.59,1.22,-0.43,0.00,0.00,0.13,0.00,2
-0.24,0.29,-1.19,3.17,-0.92,-0.73,0.00,0.00,0.07,0.00,2
-0.25,0.28,-1.17,6.96,-2.87,-0.43,0.00,0.00,0.11,0.00,2
-0.23,0.31,-1.18,5.80,-0.55,-0.92,0.00,0.00,0.00,0.00,2
-0.24,0.29,-1.17,-6.41,6.47,0.37,0.00,0.00,0.00,0.00,2
-0.21,0.34,-1.17,-0.37,4.52,0.06,0.00,0.00,0.00,0.00,2
-0.25,0.32,-1.20,6.90,-4.46,-0.43,0.00,0.00,0.00,0.00,2
-0.25,0.28,-1.18,5.98,-1.89,0.18,0.00,0.00,0.00,0.00,2
-0.19,0.34,-1.16,-16.24,16.66,1.59,0.00,0.00,0.00,0.00,2
-0.05,0.20,-1.17,25.76,-18.13,30.40,0.00,0.00,0.00,0.00,2
0.00,0.13,-1.19,0.31,-39.43,20.75,0.00,0.00,0.10,0.00,2
0.04,0.14,-1.18,-40.47,-13.06,-9.09,0.00,0.00,0.16,0.00,2
0.06,0.09,-1.29,4.27,-8.12,33.94,0.00,0.00,0.15,0.00,2
0.03,0.15,-1.25,2.69,-1.95,10.13,0.00,0.00,0.12,0.00,2
0.06,-0.19,-1.22,7.32,-2.44,-8.36,0.00,0.00,0.12,0.00,2
-0.19,0.15,-1.20,13.06,-36.25,4.03,0.00,0.00,0.00,0.00,2
0.10,0.29,-1.15,-46.45,-1.83,12.94,0.00,0.00,0.09,0.00,2
0.09,0.01,-1.24,1.34,2.01,21.12,0.00,0.00,0.00,0.00,2
0.06,-0.02,-1.25,-0.43,1.83,1.40,0.00,0.00,0.00,0.00,2
0.09,0.05,-1.24,3.30,-0.24,1.16,0.00,0.00,0.00,0.00,2
0.08,0.05,-1.23,1.77,0.00,-0.73,0.00,0.00,0.00,0.00,2
0.08,0.06,-1.24,1.95,-0.18,-0.55,0.00,0.00,0.00,0.00,2
0.08,0.06,-1.23,0.06,0.24,-0.79,0.00,0.00,0.00,0.00,2
0.08,0.06,-1.23,6.16,0.00,-0.18,0.00,0.00,0.00,0.00,2
0.08,0.07,-1.23,1.89,0.06,-0.61,0.00,0.00,0.00,0.00,2
0.08,0.06,-1.23,2.50,0.24,-0.92,0.00,0.00,0.00,0.00,2
0.08,0.06,-1.24,1.04,-0.18,-0.61,0.00,0.00,0.00,0.00,2
0.09,0.11,-1.23,2.81,0.00,-0.49,0.00,0.00,0.00,0.00,2
0.10,0.11,-1.22,3.66,1.04,-0.79,0.00,0.00,0.00,0.00,2
0.10,0.11,-1.23,3.54,0.24,-0.37,0.00,0.00,0.00,0.00,2
0.10,0.10,-1.23,3.85,0.98,-0.37,0.00,0.00,0.00,0.00,2
0.10,0.11,-1.23,4.27,1.16,-0.49,0.00,0.00,0.00,0.00,2
0.10,0.10,-1.24,3.97,0.73,-0.49,0.00,0.00,0.00,0.00,2
0.10,0.10,-1.24,3.48,0.49,-0.61,0.00,0.00,0.00,0.00,2
0.10,0.11,-1.24,3.48,0.61,-0.55,0.00,0.00,0.00,0.00,2
0.09,0.11,-1.23,2.99,-0.55,-0.55,0.00,0.00,0.00,0.00,2
0.09,0.10,-1.23,3.54,0.24,-0.43,0.00,0.00,0.00,0.00,2
0.10,0.11,-1.23,2.32,-0.24,-0.73,0.00,0.00,0.00,0.00,2
0.09,0.11,-1.24,3.42,0.55,-0.43,0.00,0.00,0.00,0.00,2
0.10,0.11,-1.23,3.30,0.12,-0.31,0.00,0.00,0.00,0.00,2
0.10,0.10,-1.23,3.54,0.61,-0.55,0.00,0.00,0.00,0.00,2
0.10,0.11,-1.23,3.42,0.37,-0.49,0.00,0.00,0.00,0.00,2
0.09,0.11,-1.23,3.23,0.31,-0.37,0.00,0.00,0.00,0.00,2
0.09,0.11,-1.23,3.11,-0.24,-0.49,0.00,0.00,0.00,0.00,2
0.09,0.11,-1.23,3.17,0.67,-0.24,0.00,0.00,0.00,0.00,2
0.15,0.06,-1.40,-8.12,2.81,5.19,0.00,0.00,0.00,0.00,2
0.08,0.11,-1.24,3.97,1.53,-0.43,0.00,0.00,0.00,0.00,2
0.09,0.10,-1.22,3.60,1.10,-0.31,0.00,0.00,0.00,0.00,2
-0.10,-0.26,-1.19,3.05,0.55,-0.67,0.00,0.00,0.00,0.00,2
-0.12,-0.26,-1.21,3.23,0.79,-0.49,0.00,0.00,0.00,0.00,2
-0.11,-0.28,-1.20,2.32,-2.38,1.71,0.00,0.00,0.00,0.00,2
-0.11,-0.28,-1.20,3.11,-2.44,0.43,0.00,0.00,0.00,0.00,2
-0.09,-0.27,-1.19,2.26,-0.12,-1.16,0.00,0.00,0.00,0.00,2
-0.12,-0.28,-1.19,3.05,0.55,0.61,0.00,0.00,0.00,0.00,2
-0.11,-0.28,-1.18,2.50,0.98,-1.10,0.00,0.00,0.00,0.00,2
-0.11,-0.25,-1.21,1.53,-0.12,-0.37,0.00,0.00,0.00,0.00,2
-0.12,-0.27,-1.20,1.89,-0.55,-1.10,0.00,0.00,0.00,0.00,2
-0.12,-0.24,-1.21,6.71,-9.03,-3.11,0.00,0.00,0.00,0.00,2
-0.16,-0.25,-1.21,3.48,-8.12,-0.37,0.00,0.00,0.00,0.00,2
-0.12,-0.25,-1.19,2.44,-1.71,0.37,0.00,0.00,0.00,0.00,2
-0.10,-0.26,-1.20,0.98,0.31,-1.46,0.00,0.00,0.00,0.00,2
-0.11,-0.25,-1.20,2.75,-2.14,-0.79,0.00,0.00,0.00,0.00,2
-0.08,-0.25,-1.21,3.17,-4.58,-2.50,0.00,0.00,0.00,0.00,2
-0.16,-0.24,-1.22,4.21,5.62,0.49,0.00,0.00,0.00,0.00,2
-0.09,-0.25,-1.20,2.69,-1.16,0.00,0.00,0.00,0.00,0.00,2
-0.10,-0.25,-1.21,7.81,0.98,1.53,0.00,0.00,0.00,0.00,2
-0.10,-0.25,-1.21,2.99,0.37,-0.31,0.00,0.00,0.00,0.00,2
-0.05,-0.13,-1.23,2.93,0.06,-0.61,0.00,0.00,0.00,0.00,2
-0.04,-0.13,-1.23,3.17,0.00,-0.67,0.00,0.46,0.00,0.00,2
-0.05,-0.13,-1.23,2.81,0.06,-0.49,0.00,1.74,0.00,0.00,2
-0.04,-0.13,-1.23,3.11,0.12,-0.12,0.00,0.72,0.00,0.00,2
-0.04,-0.13,-1.23,2.75,0.12,-0.55,0.00,0.39,0.00,0.00,2
-0.04,-0.13,-1.23,2.81,0.00,-0.55,0.00,1.59,0.00,0.00,2
-0.05,-0.13,-1.24,2.87,-0.06,-0.67,0.00,0.00,0.00,0.00,2
-0.05,-0.13,-1.23,2.99,0.31,-0.67,0.00,2.70,0.00,0.00,2
-0.05,-0.13,-1.24,2.99,0.00,-0.55,0.00,0.00,0.00,0.00,2
-0.05,-0.13,-1.23,3.11,0.12,-0.43,0.00,6.04,0.00,0.00,2
-0.05,-0.13,-1.23,2.75,0.00,-0.67,0.00,0.00,0.00,0.00,2
-0.05,-0.13,-1.24,2.56,0.18,-0.79,0.00,4.02,0.00,0.00,2
-0.04,-0.13,-1.22,3.05,0.06,-0.67,0.00,0.00,0.00,0.00,2
-0.04,-0.13,-1.23,2.69,0.06,-0.79,0.00,4.92,0.00,0.00,2
-0.05,-0.13,-1.23,2.87,0.12,-0.55,0.00,0.00,0.00,0.00,2
-0.05,-0.14,-1.23,2.93,-0.06,-0.79,0.00,2.63,0.00,0.00,2
-0.04,-0.13,-1.24,2.99,0.24,-0.61,0.00,0.05,0.00,0.00,2
-0.04,-0.13,-1.23,3.05,0.00,-0.67,0.00,0.61,0.00,0.00,2
-0.04,-0.13,-1.23,2.93,0.12,-0.55,0.00,1.35,0.00,0.00,2
-0.04,-0.14,-1.23,2.81,0.12,-0.49,0.00,0.25,0.00,0.00,2
-0.05,-0.13,-1.23,2.93,0.06,-0.92,0.00,1.81,0.00,0.00,2
-0.04,-0.13,-1.23,2.93,0.18,-0.67,0.00,0.00,0.00,0.00,2
-0.04,-0.14,-1.23,2.87,-0.18,-0.61,0.00,3.29,0.00,0.00,2
-0.05,-0.13,-1.24,2.69,0.06,-0.67,0.00,0.00,0.00,0.00,2
-0.04,-0.13,-1.24,2.87,0.12,-0.43,0.00,4.10,0.00,0.00,2
-0.04,-0.13,-1.23,2.81,-0.06,-0.55,0.00,0.00,0.00,0.00,2
-0.04,-0.13,-1.23,2.99,-0.12,-0.55,0.00,4.69,0.00,0.00,2
-0.04,-0.14,-1.23,3.23,-0.24,-0.73,0.00,0.00,0.00,0.00,2
-0.05,-0.13,-1.23,2.99,0.37,-0.55,0.00,6.02,0.00,0.00,2
-0.05,-0.13,-1.23,3.05,-0.06,-0.79,0.00,0.00,0.00,0.00,2
-0.05,-0.14,-1.23,3.11,0.12,-0.61,0.00,44.46,0.00,0.00,2
-0.05,-0.14,-1.23,1.59,-0.24,-0.55,0.00,0.00,0.00,0.00,2
-0.05,-0.13,-1.26,5.68,0.24,-0.61,0.00,173015040.00,0.00,0.00,2
-0.05,-0.14,-1.23,2.20,-0.06,-0.55,0.00,37.65,0.00,0.00,2
-0.05,-0.14,-1.21,2.50,-0.24,-0.67,0.00,0.55,0.00,0.00,2
-0.04,-0.14,-1.23,2.69,0.18,-0.73,0.00,0.25,0.00,0.00,2
-0.05,-0.14,-1.23,3.30,-0.18,-0.55,0.00,0.06,0.00,0.00,2
-0.05,-0.14,-1.23,2.81,0.12,-0.49,0.00,0.15,0.00,0.00,2
-0.05,-0.14,-1.23,2.81,0.06,-0.55,0.00,0.00,0.00,0.00,2
-0.04,-0.14,-1.23,3.23,0.06,-0.31,0.00,0.28,0.00,0.00,2
-0.05,-0.13,-1.22,2.93,0.00,-0.61,0.00,0.00,0.00,0.00,2
-0.04,-0.14,-1.23,3.17,-0.12,-0.73,0.00,173015040.00,0.00,0.00,2
-0.05,-0.15,-1.22,3.66,0.24,-0.55,0.00,0.00,0.00,0.00,2
-0.05,-0.15,-1.23,3.72,0.12,-0.49,0.00,0.00,0.00,0.00,2
-0.05,-0.14,-1.23,3.48,-0.43,-0.49,0.00,0.00,0.00,0.00,2
-0.05,-0.13,-1.23,2.81,0.12,-0.49,0.00,3.74,0.00,0.00,2
-0.05,-0.14,-1.23,2.93,0.00,-0.31,0.00,0.42,0.00,0.00,2
-0.05,-0.13,-1.23,2.99,-0.24,-0.67,0.00,1.55,0.00,0.00,2
-0.05,-0.13,-1.23,2.81,0.12,-0.43,0.00,0.00,0.00,0.00,2
-0.05,-0.13,-1.23,2.93,0.06,-0.49,0.00,2.37,0.00,0.00,2
-0.05,-0.13,-1.23,3.05,-0.06,-0.37,0.00,0.00,0.00,0.00,2
-0.05,-0.13,-1.24,3.05,0.06,-0.55,0.00,3.48,0.00,0.00,2
-0.05,-0.13,-1.23,2.75,0.18,-0.55,0.00,0.00,0.00,0.00,2
-0.05,-0.13,-1.23,2.87,0.12,-0.61,0.00,5.49,0.00,0.00,2
-0.05,-0.13,-1.25,-0.24,-0.43,-1.04,0.00,0.70,0.00,0.00,2
-0.05,-0.13,-1.23,2.56,0.00,-0.43,0.00,0.15,0.00,0.00,2
-0.05,-0.14,-1.23,2.26,0.12,-0.37,0.00,0.00,0.00,0.00,2
-0.05,-0.13,-1.24,3.17,0.12,-0.43,0.00,0.22,0.00,0.00,2
-0.04,-0.13,-1.25,3.11,0.00,-0.55,0.00,2.07,0.00,0.00,2
-0.04,-0.13,-1.24,2.50,0.00,-0.49,0.00,0.00,0.00,0.00,2
-0.05,-0.13,-1.25,3.30,-0.31,-0.37,0.00,0.00,0.00,0.00,2
-0.05,-0.12,-1.24,2.32,-0.12,-0.61,0.00,0.00,0.00,0.00,2
-0.05,-0.13,-1.23,2.93,0.06,-0.43,0.00,0.00,0.00,0.00,2
-0.05,-0.13,-1.23,2.44,-0.06,-0.49,0.00,0.00,0.00,0.00,2
-0.05,-0.13,-1.23,2.87,0.00,-0.55,0.00,0.00,0.00,0.00,2
-0.05,-0.13,-1.24,2.99,0.12,-0.31,0.00,0.00,0.00,0.00,2
-0.04,-0.13,-1.25,2.32,0.24,-0.49,0.00,0.00,0.00,0.00,2
-0.05,-0.13,-1.24,2.93,0.06,-0.61,0.00,0.00,0.00,0.00,2
-0.05,-0.13,-1.23,3.05,0.18,-0.61,0.00,0.00,0.00,0.00,2
-0.05,-0.13,-1.24,3.05,-0.12,-0.43,0.00,0.00,0.00,0.00,2
-0.05,-0.13,-1.23,2.99,0.18,-0.37,0.00,0.00,0.00,0.00,2
-0.05,-0.13,-1.24,3.05,-0.12,-0.61,0.00,0.00,0.00,0.00,2
-0.05,-0.13,-1.23,3.05,0.06,-0.67,0.00,0.00,0.00,0.00,2
-0.05,-0.13,-1.23,2.87,0.18,-0.61,0.00,0.00,0.00,0.00,2
-0.05,-0.13,-1.24,2.81,0.00,-0.37,0.00,0.00,0.00,0.00,2
-0.04,-0.13,-1.25,2.87,0.49,-0.55,0.00,0.00,0.00,0.00,2
-0.05,-0.13,-1.23,2.93,0.00,-0.49,0.00,0.00,0.00,0.00,2
-0.05,-0.13,-1.23,2.81,0.06,-0.37,0.00,0.00,0.00,0.00,2
-0.05,-0.13,-1.23,2.81,0.06,-0.43,0.00,0.00,0.00,0.00,2
-0.05,-0.13,-1.23,3.11,0.06,-0.55,0.00,0.00,0.00,0.00,2
-0.05,-0.13,-1.23,3.17,0.18,-0.55,0.00,0.00,0.45,0.00,2
-0.05,-0.13,-1.24,3.17,0.06,-0.49,0.00,0.00,0.57,0.00,2
-0.05,-0.13,-1.23,2.93,-0.06,-0.37,0.00,0.00,0.00,0.00,2
-0.05,-0.13,-1.23,2.81,0.31,-0.55,0.65,0.00,0.00,0.00,2
-0.05,-0.13,-1.23,2.93,0.06,-0.49,0.72,0.00,0.00,0.00,2
-0.05,-0.13,-1.23,2.93,0.12,-0.73,0.00,0.00,0.00,0.00,2
-0.05,-0.13,-1.26,1.77,0.06,-0.61,0.00,0.00,0.00,0.27,2
-0.05,-0.13,-1.24,3.17,0.06,-0.49,0.00,0.00,0.00,0.44,2
-0.05,-0.13,-1.23,3.11,0.00,-0.61,0.00,0.00,0.00,0.41,2
-0.05,-0.13,-1.23,3.78,-0.06,-0.61,0.00,0.00,0.00,0.00,2
-0.05,-0.13,-1.24,3.60,0.18,-0.31,0.00,0.00,0.00,0.00,2
-0.05,-0.14,-1.23,3.23,0.31,-0.73,0.00,0.00,0.00,0.00,2
-0.05,-0.13,-1.23,2.81,0.06,-0.49,0.00,0.00,0.00,0.00,2
-0.05,-0.13,-1.24,3.23,0.06,-0.37,0.00,0.00,0.00,0.00,2
-0.05,-0.13,-1.23,2.56,0.06,-0.49,0.00,0.00,0.00,0.00,2
-0.05,-0.13,-1.23,3.17,0.12,-0.55,0.00,0.00,0.00,0.00,2
-0.05,-0.14,-1.21,3.30,0.18,-0.55,0.00,0.00,0.00,0.00,2
-0.05,-0.13,-1.23,2.99,-0.12,-0.43,0.00,0.00,0.00,0.00,2
-0.05,-0.13,-1.23,2.93,0.12,-0.67,0.00,0.00,0.00,0.00,2
-0.05,-0.13,-1.24,2.56,0.12,-0.55,0.00,0.00,0.00,0.00,2
-0.05,-0.14,-1.24,3.36,0.24,-0.61,0.00,0.00,0.00,0.00,2
-0.05,-0.13,-1.23,2.69,-0.06,-0.37,0.00,0.00,0.00,0.00,2
-0.05,-0.14,-1.23,2.99,0.12,-0.43,0.00,0.00,0.00,0.00,2
-0.05,-0.13,-1.23,2.69,-0.06,-0.67,0.00,173015040.00,0.19,0.00,2
-0.05,-0.13,-1.23,3.11,0.18,-0.37,0.00,0.00,0.00,0.00,2
-0.04,-0.13,-1.24,2.87,-0.12,-0.67,0.00,173015040.00,0.15,0.00,2
-0.05,-0.13,-1.23,2.99,0.31,-0.55,0.00,0.00,0.00,0.00,2
-0.05,-0.13,-1.24,2.93,-0.12,-0.55,0.00,9.00,0.00,0.00,2
-0.05,-0.13,-1.23,2.99,0.06,-0.67,0.00,0.00,0.00,0.00,2
-0.05,-0.13,-1.23,2.87,0.00,-0.24,0.00,5.62,0.00,0.00,2
-0.05,-0.13,-1.23,2.93,0.06,-0.43,0.00,0.00,0.00,0.00,2
-0.05,-0.13,-1.23,3.11,0.06,-0.55,0.00,3.90,0.00,0.00,2
-0.05,-0.13,-1.23,2.99,0.12,-0.55,0.00,0.00,0.00,0.00,2
-0.05,-0.13,-1.23,3.05,0.18,-0.37,0.00,4.32,0.00,0.00,2
-0.05,-0.13,-1.23,2.87,0.12,-0.55,0.00,0.36,0.00,0.00,2
-0.04,-0.13,-1.24,2.81,0.18,-0.43,0.00,0.93,0.00,0.00,2
-0.05,-0.13,-1.23,2.93,0.12,-0.43,0.00,1.15,0.00,0.00,2
-0.05,-0.13,-1.24,3.11,0.00,-0.73,0.00,0.12,0.00,0.00,2
-0.05,-0.13,-1.23,2.93,0.12,-0.55,0.00,3.17,0.00,0.00,2
-0.05,-0.13,-1.23,2.75,0.31,-0.43,0.00,0.00,0.00,0.00,2
-0.05,-0.13,-1.23,3.23,-0.12,-0.55,0.00,5.82,0.00,0.00,2
-0.05,-0.13,-1.23,2.93,-0.06,-0.37,0.00,0.00,0.00,0.00,2
-0.04,-0.13,-1.23,2.93,-0.18,-0.55,0.00,8.16,0.00,0.00,2
-0.04,-0.14,-1.24,3.05,-0.18,-0.67,0.00,0.00,0.00,0.00,2
-0.05,-0.13,-1.23,2.93,-0.06,-0.49,0.00,6.93,0.00,0.00,2
-0.04,-0.13,-1.24,2.81,0.06,-0.55,0.00,0.00,0.00,0.00,2
-0.05,-0.14,-1.23,2.99,-0.12,-0.61,0.00,5.25,0.00,0.00,2
-0.04,-0.13,-1.24,2.87,0.00,-0.31,0.00,0.00,0.00,0.00,2
-0.04,-0.13,-1.23,3.05,0.00,-0.55,0.00,7.30,0.00,0.00,2
-0.05,-0.13,-1.23,2.75,0.24,-0.79,0.00,0.08,0.00,0.00,2
-0.05,-0.13,-1.23,3.05,0.06,-0.55,0.00,3.60,0.00,0.00,2
-0.05,-0.13,-1.24,2.99,-0.12,-0.18,0.00,0.92,0.00,0.00,2
-0.05,-0.13,-1.24,2.87,0.06,-0.61,0.00,0.32,0.00,0.00,2
-0.04,-0.13,-1.23,2.62,0.12,-0.67,0.00,2.46,0.00,0.00,2
-0.05,-0.13,-1.23,2.99,0.00,-0.55,0.00,0.00,0.00,0.00,2
-0.05,-0.13,-1.24,2.87,-0.06,-0.55,0.00,5.80,0.00,0.00,2
-0.05,-0.13,-1.23,3.30,0.00,-0.55,0.00,0.00,0.00,0.00,2
-0.05,-0.13,-1.24,2.93,0.06,-0.37,0.00,8.02,0.00,0.00,2
-0.05,-0.13,-1.24,2.87,0.18,-0.55,0.00,0.00,0.00,0.00,2
-0.05,-0.13,-1.24,2.87,0.24,-0.49,0.00,6.15,0.00,0.00,2
-0.05,-0.13,-1.24,2.93,0.00,-0.37,0.00,0.00,0.00,0.00,2
-0.05,-0.13,-1.24,2.75,0.00,-0.55,0.00,3.56,0.00,0.00,2
-0.05,-0.13,-1.23,2.93,-0.12,-0.49,0.00,0.09,0.00,0.00,2
-0.05,-0.13,-1.23,3.11,0.06,-0.37,0.00,1.01,0.00,0.00,2
-0.04,-0.13,-1.24,2.26,0.31,-0.67,0.00,0.65,0.00,0.00,2
-0.04,-0.13,-1.23,3.11,-0.12,-0.55,0.00,0.28,0.00,0.00,2
-0.04,-0.13,-1.23,2.62,0.12,-0.55,0.00,173015040.00,0.00,0.00,2
-0.05,-0.13,-1.24,3.54,0.06,-0.31,0.00,0.00,0.00,0.00,2
-0.05,-0.13,-1.24,3.85,0.24,-0.37,0.00,173015040.00,0.00,0.00,2
-0.05,-0.13,-1.24,3.11,0.24,-0.55,0.00,0.00,0.00,0.00,2
-0.01,-0.11,-1.28,0.67,-0.43,0.00,0.00,173015040.00,0.00,0.00,2
-0.05,-0.13,-1.24,3.11,0.18,-0.49,0.00,0.00,0.00,0.00,2
-0.04,-0.13,-1.23,1.71,-0.61,-2.20,0.00,0.00,0.00,0.00,2
-0.05,-0.14,-1.23,2.75,0.00,-0.67,0.00,0.00,0.00,0.00,2
-0.04,-0.13,-1.24,3.17,0.12,-0.55,0.00,3.51,0.00,0.00,2
-0.05,-0.13,-1.24,3.05,-0.37,-0.49,0.00,1.19,0.00,0.00,2
-0.05,-0.14,-1.23,2.56,0.12,-0.61,0.00,0.00,0.00,0.00,2
-0.05,-0.13,-1.24,3.05,-0.24,-0.37,0.00,0.00,0.00,0.00,2
-0.04,-0.13,-1.24,2.87,-0.18,-0.49,0.00,0.00,0.00,0.00,2
-0.05,-0.13,-1.24,3.17,0.12,-0.61,0.00,1.24,0.00,0.00,2
-0.05,-0.13,-1.23,2.87,0.18,-0.55,0.00,0.00,0.00,0.00,2
-0.05,-0.13,-1.23,3.17,0.06,-0.49,0.00,1.97,0.00,0.00,2
-0.05,-0.13,-1.24,2.99,-0.18,-0.61,0.00,0.00,0.00,0.00,2
-0.05,-0.13,-1.23,2.87,0.06,-0.55,0.00,4.10,0.00,0.00,2
-0.05,-0.13,-1.23,2.93,0.31,-0.49,0.00,0.00,0.00,0.00,2
-0.05,-0.13,-1.23,2.93,0.18,-0.31,0.00,5.14,0.00,0.00,2
-0.05,-0.13,-1.23,2.87,-0.06,-0.43,0.00,0.00,0.00,0.00,2
-0.05,-0.13,-1.23,2.99,0.00,-0.31,0.00,3.96,0.00,0.00,2
-0.05,-0.13,-1.23,2.56,0.12,-0.43,0.00,0.08,0.00,0.00,2
-0.05,-0.13,-1.24,3.48,-0.06,-0.37,0.00,0.00,0.00,0.00,2
-0.05,-0.13,-1.23,3.36,0.00,-0.55,0.00,0.00,0.00,0.00,2
-0.05,-0.13,-1.24,2.44,-0.06,-0.55,0.00,0.00,0.00,0.00,2
-0.06,-0.13,-1.26,3.66,-0.06,-0.37,0.00,0.00,0.00,0.00,2
-0.04,-0.13,-1.24,2.62,0.49,-0.43,0.00,0.00,0.00,0.00,2
-0.05,-0.14,-1.22,3.78,0.00,-0.31,0.00,0.00,0.00,0.00,2
-0.05,-0.13,-1.24,2.44,0.06,-0.67,0.00,0.00,0.00,0.00,2
-0.04,-0.13,-1.22,3.05,0.18,-0.49,0.00,14.20,0.00,0.00,2
-0.05,-0.13,-1.24,2.87,-0.18,-0.61,0.00,0.00,0.00,0.00,2
-0.05,-0.13,-1.23,3.05,0.00,-0.55,0.00,8.57,0.00,0.00,2
-0.03,-0.13,-1.24,4.09,0.67,-0.43,0.00,0.00,0.00,0.00,2
-0.04,-0.13,-1.23,3.85,-0.24,-0.31,0.00,14.45,0.00,0.00,2
-0.05,-0.13,-1.23,2.87,0.06,-0.43,0.00,0.00,0.00,0.00,2
-0.05,-0.14,-1.24,2.75,-0.12,-0.31,0.00,4.72,0.00,0.00,2
-0.05,-0.14,-1.23,3.05,-0.12,-0.55,0.00,0.85,0.00,0.00,2
-0.05,-0.13,-1.23,3.11,0.12,-0.61,0.00,0.80,0.00,0.00,2
-0.04,-0.13,-1.24,2.81,-0.06,-0.43,0.00,2.87,0.00,0.00,2
-0.04,-0.13,-1.24,2.99,-0.06,-0.61,0.00,0.00,0.00,0.00,2
-0.05,-0.13,-1.24,2.87,-0.12,-0.61,0.00,11.94,0.00,0.00,2
-0.05,-0.13,-1.23,2.87,0.18,-0.67,0.00,0.00,0.00,0.00,2
-0.05,-0.13,-1.23,2.44,-0.12,-0.49,0.00,18.44,0.00,0.00,2
-0.05,-0.13,-1.22,3.23,-0.12,-0.43,0.00,0.00,0.00,0.00,2
-0.05,-0.13,-1.25,2.14,-0.24,-0.43,0.00,173015040.00,0.00,0.00,2
-0.06,-0.12,-1.23,2.26,0.18,-0.85,0.00,0.00,0.00,0.00,2
-0.07,-0.12,-1.25,2.50,-0.24,-0.49,0.00,173015040.00,0.00,0.00,2
-0.08,-0.12,-1.25,1.83,-0.92,-0.49,0.00,0.78,0.00,0.00,2
-0.05,-0.12,-1.24,3.23,0.06,-0.37,0.00,0.00,0.00,0.00,2
-0.05,-0.13,-1.24,3.42,0.06,-0.43,0.00,0.00,0.00,0.00,2
-0.05,-0.12,-1.23,3.17,-0.37,-0.43,0.00,0.00,0.00,0.00,2
-0.05,-0.12,-1.24,2.26,0.43,-0.67,0.00,0.00,0.00,0.00,2
-0.05,-0.13,-1.23,2.32,-0.12,-0.67,0.00,0.00,0.00,0.00,2
-0.05,-0.13,-1.23,3.17,0.00,-0.55,0.00,0.00,0.23,0.00,2
-0.05,-0.13,-1.23,3.05,-0.06,-0.55,0.00,0.00,0.00,0.00,2
-0.05,-0.13,-1.23,2.99,0.06,-0.55,0.00,0.00,0.15,0.00,2
-0.05,-0.12,-1.24,3.11,-0.12,-0.55,0.00,0.00,0.00,0.00,2
-0.05,-0.13,-1.24,2.81,0.24,-0.61,0.00,0.00,0.13,0.00,2
-0.06,-0.13,-1.24,2.87,-0.06,-0.61,0.00,0.00,0.00,0.00,2
-0.05,-0.12,-1.23,3.60,-0.06,-0.31,0.00,0.00,0.00,0.00,2
-0.05,-0.12,-1.24,3.78,0.00,-0.73,0.00,0.00,0.00,0.00,2
-0.05,-0.12,-1.24,3.78,0.00,-0.55,0.00,0.00,0.05,0.00,2
-0.05,-0.12,-1.24,3.17,-0.06,-0.55,0.00,0.00,0.11,0.00,2
-0.05,-0.13,-1.24,2.99,-0.06,-0.79,0.00,0.00,0.00,0.00,2
-0.05,-0.13,-1.23,2.87,0.18,-0.67,0.00,0.00,0.16,0.00,2
-0.05,-0.12,-1.24,2.99,0.06,-0.61,0.00,0.00,0.00,0.00,2
-0.05,-0.13,-1.24,2.81,0.06,-0.61,0.00,0.00,0.20,0.00,2
-0.05,-0.12,-1.23,2.75,0.06,-0.31,0.00,0.00,0.00,0.00,2
-0.05,-0.12,-1.24,2.99,0.06,-0.55,0.00,0.00,0.16,0.00,2
-0.05,-0.13,-1.24,2.87,0.00,-0.49,0.00,0.00,0.00,0.00,2
-0.05,-0.13,-1.24,2.62,0.00,-0.31,0.00,0.00,0.15,0.00,2
-0.05,-0.12,-1.23,2.99,0.18,-0.49,0.00,0.00,0.00,0.00,2
-0.05,-0.13,-1.23,3.05,-0.18,-0.55,0.00,0.00,0.00,0.00,2
-0.05,-0.13,-1.24,2.99,-0.06,-0.55,0.00,0.00,0.00,0.00,2
-0.05,-0.13,-1.23,2.75,0.00,-0.43,0.00,0.00,0.00,0.00,2
-0.05,-0.13,-1.23,2.75,0.12,-0.49,0.00,0.00,0.13,0.00,2
-0.05,-0.13,-1.24,2.93,-0.12,-0.43,0.00,0.00,0.00,0.00,2
-0.05,-0.12,-1.23,2.93,0.00,-0.61,0.00,0.00,0.16,0.00,2
-0.05,-0.13,-1.24,2.99,-0.24,-0.61,0.00,0.00,0.00,0.00,2
-0.05,-0.13,-1.23,2.99,0.06,-0.49,0.00,0.00,0.18,0.00,2
-0.05,-0.13,-1.23,3.05,0.00,-0.49,0.00,0.00,0.00,0.00,2
-0.05,-0.12,-1.23,2.87,0.18,-0.31,0.00,0.00,0.15,0.00,2
-0.05,-0.13,-1.24,2.99,0.18,-0.49,0.00,0.00,0.00,0.00,2
-0.05,-0.12,-1.23,2.87,0.24,-0.61,0.00,0.00,0.10,0.00,2
-0.05,-0.12,-1.23,2.93,-0.06,-0.43,0.00,0.00,0.00,0.00,2
-0.05,-0.13,-1.23,2.99,0.12,-0.49,0.00,0.00,0.00,0.00,2
-0.05,-0.12,-1.23,2.75,0.00,-0.73,0.00,0.00,0.11,0.00,2
-0.05,-0.13,-1.24,3.11,0.24,-0.49,0.00,0.00,0.00,0.00,2
-0.05,-0.13,-1.23,2.99,0.12,-0.67,0.00,0.00,0.16,0.00,2
-0.05,-0.12,-1.24,2.93,0.18,-0.49,0.00,0.00,0.00,0.00,2
-0.05,-0.13,-1.23,2.99,0.12,-0.85,0.00,0.00,0.06,0.00,2
-0.05,-0.13,-1.23,2.87,0.18,-0.37,0.00,0.00,0.07,0.00,2
-0.05,-0.13,-1.23,2.93,0.18,-0.43,0.00,0.00,0.00,0.00,2
-0.05,-0.13,-1.23,2.62,0.12,-0.31,0.00,0.00,0.15,0.00,2
-0.05,-0.13,-1.22,2.81,0.18,-0.49,0.00,0.00,0.00,0.00,2
-0.05,-0.12,-1.23,2.75,-0.06,-0.43,0.00,0.00,0.18,0.00,2
-0.05,-0.13,-1.23,3.05,-0.06,-0.55,0.00,0.00,0.00,0.00,2
-0.05,-0.12,-1.25,2.87,-0.43,-0.43,0.00,0.00,0.19,0.00,2
-0.05,-0.13,-1.23,3.54,-0.18,-0.73,0.00,0.00,0.00,0.00,2
-0.05,-0.12,-1.24,2.14,-0.18,-0.73,0.00,0.00,0.16,0.00,2
-0.05,-0.13,-1.25,1.34,0.06,-0.31,0.00,0.00,0.00,0.00,2
-0.05,-0.13,-1.23,2.99,0.12,-0.24,0.00,0.00,0.12,0.00,2
-0.05,-0.13,-1.24,2.75,-0.18,-0.67,0.00,0.00,0.00,0.00,2
-0.05,-0.13,-1.24,2.99,-0.06,-0.55,0.00,0.00,0.00,0.00,2
-0.05,-0.13,-1.23,2.93,0.06,-0.49,0.00,0.00,0.12,0.00,2
-0.05,-0.12,-1.24,2.62,0.06,-0.61,0.00,0.00,0.00,0.00,2
-0.05,-0.13,-1.24,3.05,-0.18,-0.49,0.00,0.00,0.20,0.00,2
-0.05,-0.13,-1.23,3.05,0.06,-0.55,0.00,0.00,0.00,0.00,2
-0.05,-0.13,-1.23,2.93,0.00,-0.73,0.00,0.00,0.17,0.00,2
-0.04,-0.13,-1.23,3.11,0.00,-0.67,0.00,0.00,0.00,0.00,2
-0.05,-0.13,-1.23,3.05,0.06,-0.55,0.00,0.00,0.11,0.00,2
-0.05,-0.13,-1.23,3.17,0.12,-0.49,0.00,0.00,0.00,0.00,2
-0.05,-0.13,-1.24,3.11,0.18,-0.43,0.00,0.00,0.00,0.00,2
-0.05,-0.13,-1.23,2.81,0.12,-0.61,0.00,0.00,0.07,0.00,2
-0.05,-0.13,-1.23,2.69,0.12,-0.61,0.00,0.00,0.00,0.00,2
-0.05,-0.13,-1.23,2.81,0.12,-0.43,0.00,0.00,0.13,0.00,2
-0.05,-0.13,-1.24,3.05,-0.06,-0.49,0.00,0.00,0.00,0.00,2
-0.05,-0.13,-1.23,2.69,-0.06,-0.37,0.00,0.00,0.17,0.00,2
-0.05,-0.13,-1.24,3.17,-0.06,-0.55,0.00,0.00,0.00,0.00,2
-0.05,-0.13,-1.24,2.62,-0.12,-0.43,0.00,0.00,0.15,0.00,2
-0.05,-0.13,-1.24,3.17,0.31,-0.61,0.00,0.00,0.00,0.00,2
-0.05,-0.13,-1.24,2.99,-0.06,-0.31,0.00,0.00,0.12,0.00,2
-0.05,-0.13,-1.23,2.93,0.06,-0.55,0.00,0.00,0.00,0.00,2
-0.05,-0.13,-1.23,2.81,0.12,-0.43,0.00,0.00,0.08,0.00,2
-0.05,-0.13,-1.24,2.87,-0.12,-0.67,0.00,0.00,0.00,0.00,2
-0.05,-0.13,-1.23,2.87,-0.06,-0.31,0.00,0.00,0.00,0.00,2
-0.05,-0.13,-1.24,3.17,0.06,-0.37,0.00,0.00,0.05,0.00,2
-0.05,-0.13,-1.23,2.93,-0.06,-0.49,0.00,0.00,0.00,0.00,2
-0.04,-0.13,-1.23,3.11,0.06,-0.55,0.00,0.00,0.12,0.00,2
-0.05,-0.13,-1.24,2.75,0.00,-0.67,0.00,0.00,0.00,0.00,2
-0.05,-0.12,-1.24,2.99,0.06,-0.55,0.00,0.00,0.16,0.00,2
-0.05,-0.13,-1.24,2.99,-0.06,-0.49,0.00,0.00,0.00,0.00,2
-0.05,-0.13,-1.23,2.93,0.06,-0.61,0.00,0.00,0.14,0.00,2
-0.05,-0.13,-1.23,3.11,-0.06,-0.31,0.00,0.00,0.00,0.00,2
-0.05,-0.13,-1.24,3.05,0.18,-0.49,0.00,0.00,0.13,0.00,2
-0.05,-0.13,-1.23,2.93,0.00,-0.49,0.00,0.00,0.00,0.00,2
-0.05,-0.13,-1.23,2.93,-0.06,-0.31,0.00,0.00,0.06,0.00,2
-0.05,-0.13,-1.23,3.11,0.12,-0.43,0.00,0.00,0.00,0.00,2
-0.05,-0.12,-1.23,3.17,-0.12,-0.49,0.00,0.00,0.00,0.00,2
-0.05,-0.12,-1.23,2.81,0.24,-0.55,0.00,0.00,0.00,0.00,2
-0.05,-0.13,-1.23,3.05,0.06,-0.37,0.00,0.00,0.00,0.00,2
-0.05,-0.13,-1.24,2.99,0.00,-0.49,0.00,0.00,0.11,0.00,2
-0.05,-0.12,-1.23,2.87,0.06,-0.61,0.00,0.00,0.00,0.00,2
-0.05,-0.13,-1.23,3.17,0.00,-0.24,0.00,0.00,0.14,0.00,2
-0.05,-0.12,-1.24,2.81,-0.06,-0.49,0.00,0.00,0.00,0.00,2
-0.05,-0.13,-1.24,2.99,0.37,-0.55,0.00,0.00,0.17,0.00,2
-0.05,-0.12,-1.24,3.11,0.06,-0.49,0.00,0.00,0.00,0.00,2
-0.05,-0.13,-1.23,3.05,-0.12,-0.37,0.00,0.00,0.16,0.00,2
-0.05,-0.13,-1.23,3.05,0.12,-0.55,0.00,0.00,0.00,0.00,2
-0.05,-0.13,-1.23,2.93,0.00,-0.55,0.00,0.00,0.10,0.00,2
-0.05,-0.13,-1.24,3.17,-0.06,-0.67,0.00,0.00,0.00,0.00,2
-0.05,-0.12,-1.23,2.93,0.18,-0.55,0.00,0.00,0.00,0.00,2
-0.05,-0.13,-1.23,3.23,-0.12,-0.73,0.00,0.00,0.00,0.00,2
-0.05,-0.13,-1.23,2.75,0.06,-0.61,0.00,0.00,0.00,0.00,2
-0.05,-0.13,-1.24,3.17,0.12,-0.43,0.00,0.00,0.09,0.00,2
-0.05,-0.13,-1.23,2.99,0.00,-0.55,0.00,0.00,0.00,0.00,2
-0.05,-0.13,-1.24,3.11,-0.06,-0.55,0.00,0.00,0.15,0.00,2
-0.05,-0.13,-1.24,3.11,0.24,-0.55,0.00,0.00,0.00,0.00,2
-0.05,-0.13,-1.23,2.81,0.06,-0.55,0.00,0.00,0.18,0.00,2
-0.05,-0.13,-1.23,2.56,-0.06,-0.31,0.00,0.00,0.00,0.00,2
-0.05,-0.13,-1.24,2.93,0.06,-0.43,0.00,0.00,0.16,0.00,2
-0.05,-0.13,-1.24,2.99,0.00,-0.61,0.00,0.00,0.00,0.00,2
-0.05,-0.13,-1.24,2.99,0.06,-0.37,0.00,0.00,0.13,0.00,2
-0.05,-0.13,-1.23,3.11,0.12,-0.37,0.00,0.00,0.00,0.00,2
-0.05,-0.13,-1.24,3.05,0.06,-0.37,0.00,0.00,0.07,0.00,2
-0.05,-0.12,-1.24,2.99,-0.12,-0.18,0.00,0.00,0.00,0.00,2
-0.05,-0.13,-1.23,3.17,0.12,-0.61,0.00,0.00,0.00,0.00,2
-0.05,-0.13,-1.23,3.48,0.12,-0.55,0.00,0.00,0.00,0.00,2
-0.05,-0.13,-1.23,3.30,0.12,-0.43,0.00,0.00,0.00,0.00,2
-0.05,-0.12,-1.23,2.75,0.12,-0.55,0.00,173015040.00,0.00,0.00,2
-0.05,-0.13,-1.23,2.99,0.18,-0.43,0.00,0.00,0.00,0.00,2
-0.05,-0.12,-1.23,2.56,0.18,-0.49,0.00,173015040.00,0.00,0.00,2
-0.05,-0.13,-1.23,2.93,0.18,-0.49,0.00,0.00,0.00,0.00,2
-0.05,-0.13,-1.23,2.99,0.06,-0.43,0.00,173015040.00,0.00,0.00,2
-0.05,-0.13,-1.24,2.50,0.06,-0.37,0.00,0.00,0.00,0.00,2
-0.05,-0.12,-1.25,3.97,0.06,-0.37,0.00,0.00,0.00,0.00,2
-0.05,-0.13,-1.23,3.30,0.06,-0.67,0.00,0.00,0.00,0.00,2
-0.05,-0.13,-1.24,2.75,-0.12,-0.49,0.00,0.00,0.00,0.00,2
-0.05,-0.12,-1.23,3.17,0.12,-0.37,0.00,0.00,0.00,0.00,2
-0.05,-0.13,-1.24,2.99,0.12,-0.55,0.00,0.00,0.00,0.00,2
-0.05,-0.13,-1.23,2.87,0.12,-0.55,0.00,0.00,0.00,0.00,2
-0.05,-0.13,-1.24,3.17,0.18,-0.43,0.00,0.00,0.00,0.00,2
-0.05,-0.13,-1.23,2.75,0.06,-0.61,0.00,0.00,0.00,0.00,2
-0.05,-0.13,-1.24,3.11,0.24,-0.67,0.00,0.00,0.00,0.00,2
-0.05,-0.13,-1.23,2.81,0.24,-0.31,0.00,0.00,0.00,0.00,2
-0.05,-0.13,-1.23,3.05,-0.06,-0.24,0.00,0.00,0.00,0.00,2
-0.05,-0.12,-1.25,2.87,-0.18,-0.49,0.00,0.00,0.00,0.00,2
