accelX,accelY,accelZ,gyroX,gyroY,gyroZ,fsr1,fsr2,fsr3,fsr4,label
0.01,0.05,-1.25,3.05,0.31,-0.98,0.00,0.00,0.04,0.00,2
0.01,0.05,-1.24,2.62,0.00,-0.73,0.00,0.00,0.04,0.00,2
0.01,0.05,-1.24,2.69,0.06,-0.73,0.00,0.00,0.05,0.00,2
0.01,0.05,-1.24,2.75,0.12,-0.92,0.00,0.00,0.04,0.00,2
0.01,0.05,-1.25,2.69,-0.06,-0.67,0.00,0.00,0.00,0.00,2
0.04,0.09,-1.25,4.58,5.49,-4.15,0.00,0.00,0.00,0.00,2
0.02,0.05,-1.24,2.81,0.06,-0.79,0.00,0.00,0.05,0.00,2
0.01,0.05,-1.25,2.75,0.12,-0.85,0.00,0.00,0.00,0.00,2
0.02,0.05,-1.24,3.05,-0.18,-0.61,0.00,0.00,0.00,0.00,2
0.01,0.05,-1.25,2.81,0.06,-0.79,0.00,0.00,0.04,0.00,2
0.02,0.05,-1.24,2.81,0.12,-0.61,0.00,0.00,0.05,0.00,2
0.01,0.05,-1.25,2.69,0.00,-0.55,0.00,0.00,0.00,0.00,2
0.01,0.05,-1.25,2.81,-0.24,-0.61,0.00,0.00,0.05,0.00,2
0.01,0.05,-1.25,2.75,0.00,-0.73,0.31,0.00,0.00,0.31,2
0.01,0.05,-1.25,2.69,0.18,-0.73,0.32,0.00,0.00,0.32,2
0.01,0.05,-1.24,2.93,0.06,-0.85,0.37,0.00,0.00,0.37,2
0.02,0.05,-1.24,3.17,0.12,-0.85,0.00,0.00,0.00,0.00,2
0.01,0.05,-1.24,2.56,0.06,-0.79,0.23,0.00,0.00,0.23,2
0.01,0.05,-1.24,2.87,0.06,-0.85,0.30,0.00,0.00,0.31,2
0.02,0.05,-1.24,2.81,-0.12,-0.49,0.30,0.00,0.00,0.31,2
0.01,0.05,-1.24,2.87,0.24,-0.61,0.00,0.00,0.00,0.00,2
0.01,0.05,-1.25,2.75,-0.06,-0.67,0.00,0.00,0.00,0.00,2
0.02,0.05,-1.25,2.93,-0.06,-0.61,0.00,0.00,0.08,0.00,2
0.02,0.05,-1.24,2.87,0.06,-0.55,0.00,0.00,0.08,0.00,2
0.01,0.05,-1.24,2.99,0.00,-0.55,0.00,0.00,0.07,0.00,2
0.01,0.05,-1.24,2.93,0.12,0.31,0.00,0.00,0.06,0.00,2
0.02,0.05,-1.24,2.50,-1.46,-0.67,0.00,0.00,0.06,0.00,2
0.01,0.05,-1.25,2.62,-0.06,-0.55,0.00,0.00,0.06,0.00,2
0.02,0.05,-1.24,2.56,0.00,-0.61,0.00,0.00,0.07,0.00,2
0.01,0.05,-1.25,2.93,-0.12,-0.79,0.00,0.00,0.07,0.00,2
0.06,0.03,-1.14,11.05,20.75,0.00,0.00,0.00,0.07,0.00,2
0.01,0.03,-1.26,2.75,0.12,0.37,0.00,0.00,0.09,0.00,2
-0.01,0.06,-1.30,0.43,-4.33,-1.16,0.00,0.00,0.09,0.00,2
0.02,0.04,-1.24,2.75,-0.06,-0.79,0.00,0.00,0.08,0.00,2
0.02,0.05,-1.24,2.69,0.00,-1.89,0.00,0.00,0.08,0.00,2
0.04,0.04,-1.24,2.50,-0.18,-7.57,0.00,0.00,0.09,0.00,2
0.02,0.03,-1.24,6.47,0.06,-1.46,0.00,0.00,0.10,0.00,2
0.02,0.04,-1.25,1.22,-0.31,-0.61,0.00,0.00,0.09,0.00,2
0.01,0.04,-1.25,6.53,-0.37,0.73,0.00,0.00,0.09,0.00,2
0.01,0.04,-1.24,2.93,-0.06,-2.75,0.00,0.00,0.09,0.00,2
0.02,0.01,-1.20,-2.50,1.95,-9.03,0.00,0.00,0.09,0.00,2
-0.03,0.06,-1.32,2.56,-0.55,-1.28,0.06,0.00,0.05,0.06,2
0.01,0.05,-1.25,2.50,0.00,-0.49,0.29,0.00,0.00,0.29,2
0.01,0.05,-1.24,6.41,1.59,-0.61,0.33,0.00,0.00,0.33,2
0.00,0.05,-1.25,1.83,-0.49,-0.61,0.31,0.00,0.00,0.32,2
0.01,0.05,-1.25,2.81,0.18,-0.73,0.28,0.00,0.00,0.27,2
-0.01,0.06,-1.27,1.16,-4.33,-0.67,0.00,0.00,0.08,0.00,2
0.02,0.05,-1.25,3.23,1.04,-0.67,0.00,0.00,0.11,0.00,2
0.00,0.06,-1.24,2.26,-2.08,-0.12,0.00,0.00,0.11,0.00,2
0.01,0.05,-1.24,2.93,0.98,0.92,0.00,0.00,0.11,0.00,2
0.01,0.04,-1.25,3.30,1.83,0.12,0.00,0.00,0.11,0.00,2
0.01,0.05,-1.24,3.66,1.59,-0.55,0.00,0.00,0.11,0.00,2
0.01,0.05,-1.25,2.62,-0.85,-0.73,0.00,0.00,0.12,0.00,2
0.01,0.06,-1.24,1.22,-5.00,-0.92,0.00,0.00,0.12,0.00,2
0.02,0.06,-1.23,3.91,2.56,-0.67,0.00,0.00,0.11,0.00,2
0.00,0.05,-1.24,2.50,-1.16,-1.34,0.00,0.00,0.12,0.00,2
0.00,0.06,-1.26,2.93,0.37,-0.73,0.32,0.00,0.00,0.33,2
0.01,0.06,-1.25,2.62,-0.61,-0.79,0.45,0.00,0.00,0.45,2
-0.00,0.05,-1.26,1.95,-2.99,0.73,0.33,0.00,0.00,0.32,2
0.02,0.06,-1.23,3.66,2.44,-0.61,0.00,0.00,0.13,0.00,2
0.01,0.05,-1.24,3.60,2.56,-0.67,0.00,0.00,0.11,0.00,2
0.01,0.05,-1.25,2.20,-1.16,-0.73,0.09,0.00,0.00,0.09,2
0.01,0.05,-1.24,2.69,-0.18,-1.28,0.36,0.00,0.00,0.36,2
0.00,0.06,-1.24,2.44,-0.43,-0.79,0.20,0.00,0.00,0.20,2
-0.00,0.06,-1.23,1.04,-4.82,-0.92,0.00,0.00,0.15,0.00,2
0.00,0.06,-1.24,3.17,0.67,-0.55,0.00,0.00,0.13,0.00,2
-0.00,0.06,-1.25,2.87,0.12,-0.85,0.00,0.00,0.13,0.00,2
-0.00,0.05,-1.24,2.87,0.06,-0.73,0.00,0.00,0.12,0.00,2
-0.00,0.05,-1.24,2.44,-0.43,-0.61,0.00,0.00,0.12,0.00,2
-0.00,0.05,-1.24,2.87,0.06,-0.85,0.00,0.00,0.14,0.00,2
-0.00,0.05,-1.25,2.62,0.00,-0.55,0.00,0.00,0.14,0.00,2
-0.00,0.06,-1.25,2.81,0.12,-0.49,0.00,0.00,0.13,0.00,2
-0.00,0.06,-1.24,2.75,-0.24,-0.55,0.00,0.00,0.14,0.00,2
-0.00,0.05,-1.24,2.69,0.00,-0.55,0.00,0.00,0.13,0.00,2
-0.00,0.05,-1.24,2.38,-0.73,-0.92,0.00,0.00,0.13,0.00,2
-0.01,0.06,-1.27,5.43,6.59,-0.12,0.00,0.00,0.11,0.00,2
-0.02,0.05,-1.25,2.87,0.18,-0.49,0.00,6.12,0.18,0.00,2
-0.02,0.06,-1.25,2.99,-0.18,-0.55,0.00,6.22,0.18,0.00,2
-0.02,0.05,-1.25,2.87,0.43,-0.37,0.00,4.05,0.17,0.00,2
-0.02,0.06,-1.24,2.93,0.24,-0.24,0.00,4.11,0.17,0.00,2
-0.03,0.05,-1.24,2.69,-0.37,-0.61,0.00,4.38,0.18,0.00,2
-0.02,0.05,-1.24,2.93,0.12,-0.55,0.00,4.08,0.18,0.00,2
-0.02,0.06,-1.24,2.87,0.24,-0.67,0.00,4.08,0.16,0.00,2
-0.02,0.06,-1.25,2.81,0.06,-0.61,0.00,4.09,0.17,0.00,2
-0.02,0.06,-1.24,2.93,-0.06,-0.49,0.00,4.17,0.18,0.00,2
-0.02,0.06,-1.24,3.05,0.00,-0.49,0.00,4.08,0.16,0.00,2
-0.02,0.06,-1.25,2.62,-0.85,-0.49,0.00,4.10,0.18,0.00,2
-0.02,0.06,-1.25,3.05,-0.31,-0.55,0.00,6.42,0.19,0.00,2
-0.02,0.05,-1.25,2.99,0.06,-0.61,0.00,6.34,0.19,0.00,2
-0.02,0.06,-1.24,2.62,0.12,-0.43,0.05,4.00,0.10,0.00,2
-0.02,0.06,-1.24,2.93,-0.12,-0.37,0.62,6.39,0.08,0.00,2
-0.02,0.06,-1.24,3.05,0.00,-0.79,0.58,6.48,0.07,0.00,2
-0.02,0.06,-1.25,2.75,0.06,-0.67,0.35,4.98,0.07,0.00,2
-0.02,0.06,-1.25,2.75,-0.49,-0.67,0.00,4.13,0.17,0.00,2
-0.02,0.06,-1.24,2.87,-0.43,-0.24,0.00,4.06,0.17,0.00,2
-0.02,0.06,-1.25,3.17,-0.24,-0.43,0.00,4.08,0.17,0.00,2
-0.02,0.06,-1.24,2.87,-0.18,-0.67,0.00,4.03,0.17,0.58,2
-0.02,0.06,-1.24,2.75,0.00,-0.43,0.00,4.04,0.17,0.63,2
-0.04,0.06,-1.27,3.66,1.53,-0.79,0.00,4.12,0.17,0.00,2
-0.02,0.06,-1.25,2.93,-0.06,-0.49,0.00,4.02,0.17,0.00,2
-0.02,0.05,-1.24,2.87,0.79,-0.49,0.00,3.12,0.16,0.00,2
-0.00,0.05,-1.21,4.52,4.82,-0.18,0.00,1.74,0.16,0.00,2
-0.03,0.06,-1.26,1.16,-4.33,-0.92,0.00,1.80,0.18,0.00,2
0.00,0.09,-1.32,2.14,-2.01,-0.37,0.00,1.87,0.18,0.00,2
-0.03,0.13,-1.28,-2.75,-15.01,8.42,0.00,1.77,0.15,0.00,2
-0.01,0.06,-1.24,3.66,2.01,-0.49,0.00,1.71,0.15,0.00,2
-0.01,0.05,-1.25,2.99,0.24,-0.43,0.00,1.95,0.15,0.00,2
-0.02,0.03,-1.24,1.95,-3.23,-2.01,0.00,1.80,0.14,0.00,2
-0.01,0.05,-1.22,4.52,4.03,-0.24,0.00,4.02,0.17,0.00,2
-0.02,0.05,-1.25,3.17,1.28,-0.49,0.00,3.98,0.17,0.00,2
-0.02,0.06,-1.25,2.56,-0.18,-0.73,0.00,4.03,0.16,0.00,2
-0.02,0.05,-1.25,3.05,0.18,-0.73,0.00,4.02,0.16,0.00,2
-0.02,0.06,-1.25,2.87,0.12,-0.67,0.00,4.02,0.17,0.00,2
-0.02,0.06,-1.25,2.44,0.12,-0.49,0.00,3.98,0.16,0.00,2
-0.02,0.06,-1.25,2.69,-0.06,-0.49,0.00,4.03,0.18,0.00,2
-0.02,0.06,-1.25,2.99,-0.24,-0.67,0.00,4.04,0.16,0.00,2
-0.02,0.06,-1.24,3.05,-0.12,-0.55,0.00,4.02,0.16,0.00,2
-0.02,0.06,-1.25,2.56,-0.61,-0.67,0.00,173015040.00,0.22,0.00,2
-0.02,0.04,-1.22,8.18,4.82,-1.04,0.00,2.38,0.18,0.00,2
-0.03,0.07,-1.24,-1.46,-3.60,-0.67,0.00,2.13,0.18,0.00,2
-0.02,0.06,-1.24,3.60,1.40,-0.49,0.00,2.04,0.16,0.00,2
-0.04,0.12,-1.24,3.11,0.37,-0.61,0.00,1.81,0.18,0.00,2
-0.01,0.04,-1.25,2.01,-1.22,-1.46,0.00,1.99,0.17,0.00,2
-0.02,0.07,-1.25,2.38,-0.43,-2.08,0.00,1.94,0.19,0.00,2
-0.02,0.06,-1.25,2.69,0.18,-0.55,0.00,3.97,0.21,0.00,2
-0.02,0.06,-1.25,2.81,-0.12,-0.55,0.00,4.02,0.22,0.00,2
-0.02,0.06,-1.25,2.99,0.00,-0.24,0.00,4.03,0.22,0.00,2
-0.02,0.06,-1.25,2.93,0.18,-0.67,0.00,4.00,0.22,0.00,2
-0.03,0.05,-1.25,2.99,-0.12,-0.61,0.00,3.97,0.21,0.00,2
-0.03,0.06,-1.25,2.99,0.00,-0.55,0.00,3.96,0.21,0.00,2
-0.02,0.06,-1.25,2.87,-0.06,-0.43,0.00,4.02,0.21,0.00,2
-0.02,0.06,-1.25,2.69,-0.12,-0.43,0.00,4.01,0.22,0.00,2
-0.02,0.06,-1.23,3.05,0.18,-0.55,0.00,3.97,0.22,0.00,2
-0.02,0.06,-1.24,2.81,0.18,-0.37,0.00,3.96,0.22,0.00,2
-0.02,0.05,-1.25,2.93,0.00,-0.43,0.00,3.97,0.20,0.00,2
-0.02,0.06,-1.25,2.87,-0.12,-0.55,0.00,4.00,0.21,0.00,2
-0.02,0.06,-1.24,2.93,-0.06,-0.37,0.00,3.98,0.21,0.00,2
-0.03,0.06,-1.25,2.75,0.06,-0.43,0.00,5.92,0.21,0.00,2
-0.02,0.06,-1.25,3.05,0.24,-0.43,0.00,5.62,0.21,0.00,2
-0.02,0.06,-1.25,2.93,0.06,-0.31,0.00,3.99,0.20,0.00,2
-0.02,0.06,-1.24,2.87,0.12,-0.49,0.00,3.97,0.20,0.00,2
-0.02,0.06,-1.25,2.75,-0.06,-0.49,0.00,4.00,0.20,0.00,2
-0.02,0.06,-1.25,2.75,-0.06,-0.43,0.00,3.95,0.20,0.00,2
-0.02,0.06,-1.25,2.69,0.06,-0.37,0.00,3.95,0.20,0.00,2
-0.02,0.06,-1.24,2.93,-0.12,-0.49,0.00,3.97,0.20,0.00,2
-0.02,0.06,-1.24,2.99,-0.06,-0.24,0.00,3.95,0.20,0.00,2
-0.02,0.06,-1.25,2.93,-0.06,-0.61,0.00,3.94,0.21,0.00,2
-0.02,0.06,-1.25,3.05,0.06,-0.37,0.00,3.97,0.20,0.00,2
-0.03,0.06,-1.25,2.93,0.06,-0.67,0.00,3.97,0.20,0.00,2
-0.02,0.06,-1.25,2.69,0.00,-0.31,0.00,5.72,0.21,0.00,2
-0.02,0.06,-1.24,2.99,0.12,-0.55,0.00,5.82,0.22,0.00,2
-0.02,0.06,-1.23,3.05,0.06,-0.49,0.00,3.97,0.21,0.00,2
-0.02,0.06,-1.25,2.69,0.18,-0.43,0.00,3.95,0.21,0.00,2
-0.02,0.06,-1.24,2.93,0.00,-0.61,0.00,3.95,0.20,0.00,2
-0.02,0.06,-1.24,2.87,-0.06,-0.55,0.00,3.98,0.20,0.00,2
-0.02,0.06,-1.24,2.87,0.06,-0.49,0.00,3.97,0.20,0.00,2
-0.02,0.06,-1.25,2.99,-0.12,-0.55,0.00,3.94,0.21,0.00,2
-0.02,0.06,-1.24,2.93,0.06,-0.55,0.00,3.91,0.21,0.00,2
-0.02,0.06,-1.25,2.93,0.00,-0.67,0.00,3.97,0.21,0.00,2
-0.02,0.06,-1.25,2.62,0.24,-0.37,0.00,3.91,0.21,0.00,2
-0.02,0.06,-1.24,2.81,-0.18,-0.37,0.00,3.96,0.22,0.00,2
-0.02,0.05,-1.24,2.87,-0.06,-0.67,0.00,3.92,0.22,0.00,2
-0.02,0.06,-1.25,2.75,0.06,-0.49,0.00,3.93,0.22,0.00,2
-0.02,0.06,-1.25,3.05,-0.06,-0.37,0.00,3.96,0.21,0.00,2
-0.02,0.06,-1.24,2.93,-0.12,-0.43,0.00,3.97,0.21,0.00,2
-0.02,0.06,-1.25,2.87,0.43,-0.61,0.00,3.94,0.21,0.00,2
-0.02,0.06,-1.25,3.17,-0.12,-0.79,0.00,3.69,0.21,0.00,2
-0.03,0.08,-1.34,-1.34,-3.66,-2.93,0.00,3.72,0.21,0.00,2
-0.04,0.08,-1.29,2.87,-0.37,-0.67,0.00,2.19,0.20,0.00,2
0.02,0.02,-1.16,6.16,6.84,-2.62,0.00,173015040.00,0.26,0.00,2
-0.02,0.05,-1.24,2.56,-0.61,-0.49,0.00,0.00,0.13,0.00,2
-0.02,0.06,-1.24,3.05,0.00,-0.55,0.00,5.57,0.21,0.00,2
-0.02,0.06,-1.25,2.81,-0.06,-0.79,0.00,4.09,0.21,0.00,2
-0.02,0.06,-1.25,3.11,-0.06,-0.61,0.00,0.00,0.13,0.00,2
-0.03,0.05,-1.24,3.17,-0.12,-0.61,0.00,0.00,0.14,0.00,2
-0.02,0.05,-1.24,3.11,0.49,-0.24,0.00,1.99,0.18,0.00,2
-0.02,0.06,-1.25,3.54,0.79,-0.31,0.00,2.01,0.18,0.00,2
-0.02,0.06,-1.25,3.05,0.24,-0.37,0.00,2.12,0.18,0.00,2
-0.02,0.05,-1.25,3.66,2.01,-0.49,0.00,2.04,0.18,0.00,2
-0.02,0.06,-1.25,2.20,-1.28,-0.85,0.00,1.17,0.16,0.00,2
-0.01,0.06,-1.24,2.69,-1.34,-0.37,0.00,2.02,0.17,0.00,2
-0.01,0.05,-1.25,3.78,1.16,-2.08,0.00,2.11,0.20,0.00,2
-0.02,0.05,-1.24,2.01,-0.61,-0.61,0.00,2.40,0.17,0.00,2
-0.01,0.05,-1.22,3.30,0.85,-0.73,0.00,2.48,0.16,0.00,2
-0.02,0.07,-1.25,1.59,-3.05,-5.43,0.00,0.90,0.12,0.00,2
-0.02,0.06,-1.25,1.83,-2.26,-0.92,0.00,0.00,0.11,0.00,2
-0.02,0.05,-1.25,2.75,-0.31,-0.49,0.00,0.00,0.10,0.00,2
-0.02,0.06,-1.25,3.11,0.24,-0.49,0.00,0.00,0.00,0.00,2
-0.02,0.06,-1.25,2.75,0.06,-0.61,0.00,0.00,0.00,0.00,2
-0.01,0.05,-1.22,0.61,-5.43,-1.10,0.00,0.12,0.00,0.00,2
-0.03,0.07,-1.26,2.62,0.06,0.18,0.00,2.41,0.15,0.00,2
-0.02,0.06,-1.25,2.56,-0.49,-0.73,0.00,4.02,0.14,0.00,2
-0.02,0.06,-1.25,3.30,0.85,-0.43,0.00,1.21,0.13,0.00,2
-0.02,0.06,-1.25,2.56,-1.04,-0.43,0.00,0.00,0.12,0.00,2
-0.02,0.06,-1.25,2.75,-0.06,-0.79,0.00,0.00,0.09,0.00,2
-0.02,0.06,-1.25,2.69,0.12,-0.49,0.00,0.00,0.12,0.00,2
-0.02,0.06,-1.24,3.05,0.18,-0.67,0.00,0.00,0.12,0.00,2
-0.02,0.06,-1.25,2.75,0.12,-0.55,0.00,0.00,0.12,0.00,2
-0.02,0.05,-1.24,2.99,0.18,-0.37,0.00,1.56,0.11,0.00,2
-0.01,0.04,-1.24,2.87,-0.24,1.28,0.00,0.00,0.09,0.00,2
-0.02,0.06,-1.25,2.93,0.00,-0.37,0.00,0.00,0.08,0.00,2
-0.03,0.07,-1.26,3.72,1.22,-1.04,0.00,4.10,0.15,0.00,2
-0.02,0.06,-1.25,2.87,0.00,-0.43,0.00,0.00,0.11,0.00,2
-0.04,0.02,-1.24,9.46,-3.17,0.79,0.00,2.38,0.17,0.00,2
-0.02,0.06,-1.25,2.08,-1.10,-0.85,0.00,2.47,0.16,0.00,2
-0.02,0.06,-1.29,2.93,2.32,0.37,0.00,18.74,0.22,0.00,2
0.01,0.04,-1.28,-7.32,-1.83,-2.20,0.00,2.23,0.15,0.00,2
0.02,0.02,-1.25,3.36,-1.22,-0.12,0.00,2.22,0.17,0.00,2
-0.01,0.00,-1.25,1.77,-3.05,9.58,0.00,2.57,0.15,0.00,2
0.01,0.01,-1.23,-0.85,-0.24,0.61,0.00,2.10,0.15,0.00,2
-0.01,0.06,-1.24,1.34,-3.66,-1.34,0.00,2.28,0.19,0.00,2
-0.01,0.05,-1.24,3.30,0.43,-0.55,0.00,2.22,0.18,0.00,2
-0.02,0.05,-1.23,5.92,2.44,-0.73,0.00,2.10,0.17,0.00,2
-0.03,0.06,-1.25,3.23,0.43,-0.55,0.00,3.80,0.21,0.00,2
-0.02,0.06,-1.24,2.56,-0.06,-0.55,0.00,4.00,0.19,0.00,2
-0.02,0.06,-1.25,2.99,-0.06,-0.49,0.00,3.91,0.20,0.00,2
-0.02,0.06,-1.25,2.87,-0.12,-0.49,0.00,3.93,0.19,0.00,2
-0.02,0.06,-1.25,2.75,0.00,-0.43,0.00,3.93,0.19,0.00,2
-0.02,0.06,-1.25,2.93,0.18,-0.61,0.00,3.93,0.19,0.00,2
-0.02,0.05,-1.25,2.81,0.06,-0.43,0.00,3.94,0.19,0.00,2
-0.02,0.05,-1.25,2.99,0.00,-0.61,0.00,3.97,0.18,0.00,2
-0.02,0.06,-1.25,2.99,0.18,-0.67,0.00,3.97,0.19,0.00,2
-0.02,0.05,-1.24,2.62,0.18,-0.73,0.00,3.95,0.18,0.00,2
-0.02,0.06,-1.25,2.87,-0.18,-0.55,0.00,3.92,0.17,0.00,2
-0.02,0.06,-1.25,3.23,0.12,-0.55,0.00,3.94,0.19,0.00,2
-0.02,0.06,-1.25,2.75,-0.12,-0.37,0.00,3.91,0.18,0.00,2
-0.02,0.06,-1.24,2.93,0.00,-0.73,0.00,3.97,0.19,0.00,2
-0.01,0.05,-1.25,2.93,0.24,-0.24,0.00,3.95,0.18,0.00,2
-0.02,0.05,-1.25,2.62,0.37,-0.49,0.00,3.97,0.18,0.00,2
-0.02,0.06,-1.25,3.05,0.24,-0.43,0.00,4.00,0.18,0.00,2
-0.02,0.06,-1.25,2.87,0.06,-0.31,0.00,4.01,0.18,0.00,2
-0.03,-0.09,-1.24,2.99,0.18,-0.43,0.00,0.00,0.15,0.00,2
-0.02,-0.09,-1.24,2.99,-0.12,-0.49,0.00,0.00,0.15,0.00,2
-0.02,-0.09,-1.24,2.62,0.31,-0.61,0.00,0.00,0.16,0.00,2
-0.02,-0.09,-1.24,3.05,-0.12,-0.37,0.00,0.00,0.14,0.00,2
-0.03,-0.09,-1.25,2.62,-0.12,-0.31,0.00,0.00,0.13,0.00,2
-0.03,-0.09,-1.25,2.87,0.18,-0.49,0.00,0.00,0.14,0.00,2
-0.02,-0.10,-1.25,2.99,0.12,-0.37,0.00,0.00,0.13,0.00,2
-0.02,-0.09,-1.24,2.62,-0.31,-0.61,0.00,0.00,0.13,0.00,2
-0.02,-0.09,-1.24,2.69,0.06,-0.67,0.00,0.00,0.13,0.00,2
-0.02,-0.09,-1.24,2.69,0.06,-0.43,0.00,0.00,0.13,0.00,2
-0.01,-0.09,-1.24,2.93,0.12,-0.61,0.00,0.00,0.13,0.00,2
-0.02,-0.08,-1.24,2.81,0.31,-0.31,0.00,0.00,0.13,0.00,2
-0.03,-0.09,-1.25,2.38,-0.12,-0.67,0.45,0.00,0.00,0.00,2
-0.02,-0.08,-1.24,2.87,-0.24,-0.24,0.88,0.00,0.00,0.00,2
-0.02,-0.09,-1.24,2.87,-0.06,-0.55,0.98,0.00,0.00,0.00,2
-0.03,-0.09,-1.25,3.17,-0.98,0.12,0.00,0.00,0.14,0.00,2
-0.02,-0.09,-1.24,2.75,0.06,-0.31,0.00,0.00,0.14,0.00,2
-0.02,-0.08,-1.24,3.11,0.00,0.06,0.00,0.00,0.14,0.00,2
-0.02,-0.08,-1.25,0.98,-0.18,-0.67,0.00,0.00,0.13,0.00,2
-0.02,-0.09,-1.24,2.75,0.18,-0.67,0.00,0.00,0.13,0.45,2
-0.03,-0.08,-1.24,2.62,0.06,-0.43,0.00,0.00,0.13,0.62,2
-0.00,-0.10,-1.23,4.21,-0.85,-4.52,0.00,0.00,0.14,0.00,2
-0.02,-0.09,-1.24,2.81,0.12,-0.31,0.00,0.00,0.13,0.00,2
-0.02,-0.09,-1.24,2.69,-0.06,-0.61,0.00,0.00,0.15,0.00,2
-0.02,-0.09,-1.25,2.81,0.12,-0.31,0.00,0.00,0.12,0.00,2
-0.04,-0.08,-1.23,3.23,0.06,-0.67,0.00,0.00,0.13,0.00,2
0.02,-0.08,-1.21,5.43,-2.32,-12.08,0.00,0.00,0.12,0.00,2
-0.03,0.05,-1.25,3.05,0.12,-0.61,0.00,0.00,0.17,0.00,2
-0.03,0.05,-1.25,2.81,-0.24,-0.37,0.00,0.00,0.16,0.00,2
-0.03,0.05,-1.24,3.05,0.12,-0.85,0.00,0.00,0.16,0.00,2
-0.03,0.05,-1.25,3.30,-0.43,-0.73,0.00,0.00,0.16,0.00,2
-0.02,0.05,-1.24,2.99,0.24,-0.55,0.00,0.00,0.16,0.00,2
-0.02,0.05,-1.24,2.56,0.00,-0.49,0.00,0.00,0.17,0.00,2
-0.01,0.05,-1.22,2.62,0.61,-0.43,0.00,0.00,0.17,0.00,2
-0.03,0.05,-1.25,3.66,-0.12,-0.43,0.00,0.00,0.17,0.00,2
-0.03,0.05,-1.25,1.28,-2.08,0.67,0.00,0.00,0.17,0.00,2
-0.02,0.05,-1.25,3.30,0.12,-0.43,0.85,0.00,0.00,0.00,2
-0.02,0.05,-1.25,2.38,-0.18,-0.37,0.94,0.00,0.00,0.00,2
-0.03,0.05,-1.25,0.43,0.00,-2.14,0.00,0.00,0.16,0.00,2
-0.03,0.05,-1.25,2.87,0.18,-0.79,0.00,0.00,0.16,0.00,2
-0.02,0.05,-1.25,2.62,0.06,-0.79,0.00,0.00,0.17,0.00,2
-0.02,0.05,-1.25,3.17,0.31,-0.43,0.00,0.00,0.17,0.00,2
-0.04,0.05,-1.26,3.60,-0.61,-3.11,0.00,0.00,0.16,0.00,2
-0.03,0.04,-1.25,2.56,0.24,-0.98,0.00,0.00,0.16,0.48,2
-0.02,0.05,-1.25,3.17,0.18,-0.49,0.00,0.00,0.16,0.73,2
-0.02,0.05,-1.25,2.93,-0.18,-0.67,0.00,0.00,0.16,0.40,2
-0.03,0.05,-1.25,3.17,-0.37,-0.61,0.00,0.00,0.16,0.00,2
-0.04,0.01,-1.25,-1.46,-0.12,0.24,0.00,0.00,0.16,0.00,2
-0.02,0.02,-1.25,3.17,0.18,-0.43,0.00,0.00,0.17,0.00,2
-0.03,0.02,-1.25,2.93,0.43,-0.85,0.00,0.00,0.16,0.00,2
-0.03,0.01,-1.25,2.26,-0.12,-0.12,0.00,0.00,0.17,0.00,2
-0.03,0.00,-1.25,-6.90,0.67,-5.43,0.00,0.00,0.17,0.00,2
-0.03,0.01,-1.25,2.75,-0.31,-0.73,0.00,0.00,0.17,0.00,2
-0.05,-0.04,-1.25,23.86,1.34,0.73,0.00,0.00,0.16,0.00,2
-0.08,-0.05,-1.21,2.93,-5.19,1.10,0.00,0.00,0.16,0.00,2
-0.01,0.01,-1.23,1.10,2.14,0.31,0.00,0.00,0.16,0.00,2
-0.04,0.01,-1.25,-2.14,-2.01,-3.78,0.00,0.00,0.18,0.00,2
-0.05,0.02,-1.24,3.36,1.40,0.79,0.00,0.00,0.17,0.00,2
-0.05,0.03,-1.25,4.88,-0.06,0.31,0.00,0.00,0.16,0.00,2
0.08,0.00,-1.35,-73.67,-22.71,-36.50,0.00,0.00,0.17,0.00,2
-0.03,0.03,-1.27,-7.39,0.12,-6.84,0.00,0.00,0.17,0.00,2
-0.05,-0.10,-1.21,0.98,-4.88,1.04,0.00,0.00,0.00,0.00,2
-0.03,-0.09,-1.24,3.23,0.24,-0.85,0.00,0.00,0.20,0.00,2
-0.01,-0.01,-1.24,1.34,-0.49,-1.04,0.00,0.00,0.00,0.00,2
-0.04,0.07,-1.26,2.08,-1.77,-0.79,0.00,0.00,0.00,0.00,2
-0.06,0.02,-1.29,6.84,-1.46,-3.11,0.00,0.00,0.00,0.00,2
-0.01,0.04,-1.25,3.05,0.06,-0.67,0.00,0.00,0.00,0.00,2
-0.01,0.06,-1.24,3.48,1.40,-1.83,0.00,0.00,0.00,0.00,2
-0.02,0.06,-1.25,1.71,-2.44,0.12,0.00,0.00,0.00,0.00,2
-0.07,0.04,-1.26,2.32,-1.34,-1.71,0.00,0.00,0.00,0.00,2
-0.01,0.05,-1.25,2.50,-1.34,-0.67,0.00,0.00,0.00,0.00,2
-0.02,0.05,-1.24,3.30,0.49,-0.55,0.00,0.00,0.00,0.00,2
-0.02,0.05,-1.25,3.11,0.37,-0.24,0.00,0.00,0.00,0.00,2
-0.02,0.05,-1.25,2.69,-0.73,-0.24,0.00,0.00,0.00,0.00,2
-0.02,0.05,-1.25,3.11,0.00,-0.79,0.00,0.00,0.00,0.00,2
-0.02,0.05,-1.25,2.87,0.18,-0.55,0.00,0.00,0.00,0.00,2
-0.02,0.05,-1.25,2.87,0.37,-0.67,0.00,0.00,0.00,0.00,2
-0.02,0.05,-1.25,3.17,0.43,-0.55,0.00,0.00,0.00,0.00,2
-0.02,0.05,-1.25,2.93,0.12,-0.61,0.00,0.00,0.00,0.00,2
-0.02,0.05,-1.25,2.56,-0.37,-0.67,0.00,0.00,0.00,0.00,2
-0.02,0.05,-1.25,2.69,0.37,-0.67,0.00,0.00,0.00,0.00,2
-0.02,0.05,-1.25,2.93,0.12,-0.43,0.00,0.00,0.00,0.00,2
-0.02,0.06,-1.25,2.87,0.00,-0.49,0.00,0.00,0.00,0.00,2
-0.02,0.05,-1.25,2.81,-0.18,-0.24,0.00,0.00,0.00,0.00,2
-0.02,0.05,-1.25,2.87,-0.31,-0.61,0.00,0.00,0.00,0.00,2
-0.02,0.05,-1.23,2.62,-0.37,-0.73,0.00,0.00,0.00,0.00,2
-0.02,0.08,-1.26,3.36,1.28,-1.04,0.00,0.00,0.00,0.00,2
-0.02,0.05,-1.25,2.62,-0.67,-0.43,0.00,0.00,0.00,0.00,2
-0.03,0.06,-1.25,2.87,0.06,-0.12,0.00,0.00,0.00,0.00,2
0.01,0.05,-1.24,2.56,2.56,0.06,0.00,0.00,0.00,0.00,2
0.12,0.04,-1.25,2.56,-4.52,-1.46,0.00,0.00,0.00,0.00,2
0.01,0.02,-1.25,4.82,4.33,-1.77,0.00,0.00,0.00,0.00,2
-0.00,-0.04,-1.24,4.09,-0.55,-3.23,0.00,0.00,0.00,0.00,2
-0.03,-0.10,-1.24,2.81,-4.88,-1.59,0.00,0.00,0.00,0.00,2
-0.04,-0.10,-1.25,4.33,-3.54,-1.34,0.00,0.00,0.00,0.00,2
-0.03,-0.08,-1.23,3.17,-0.31,-2.44,0.00,0.00,0.00,0.00,2
-0.03,-0.08,-1.24,2.32,-0.43,-1.83,0.00,0.00,0.00,0.00,2
-0.02,-0.08,-1.24,2.81,0.12,-0.43,0.00,0.00,0.00,0.00,2
-0.02,-0.09,-1.24,3.11,0.00,-0.85,0.00,0.00,0.00,0.00,2
-0.02,-0.09,-1.24,3.05,0.18,-0.92,0.00,0.00,0.00,0.00,2
-0.03,-0.09,-1.25,2.50,-0.43,-0.85,0.00,0.00,0.00,0.00,2
-0.03,-0.09,-1.25,2.81,0.98,-0.85,0.00,0.00,0.00,0.00,2
-0.02,-0.09,-1.24,2.75,-0.06,-0.67,0.00,0.00,0.00,0.00,2
-0.02,-0.07,-1.23,5.07,-1.22,-1.34,0.00,0.00,0.00,0.00,2
-0.02,-0.05,-1.25,2.50,-0.24,1.46,0.00,0.00,0.00,0.00,2
-0.02,-0.06,-1.23,4.70,-2.62,0.79,0.00,0.00,0.00,0.00,2
-0.03,-0.04,-1.25,3.72,0.18,-0.06,0.00,0.00,0.00,0.00,2
-0.02,-0.03,-1.25,4.27,-0.06,-0.61,0.00,0.00,0.00,0.00,2
-0.03,-0.01,-1.24,6.77,0.06,0.43,0.00,0.00,0.00,0.00,2
-0.01,0.02,-1.25,2.38,0.00,0.12,0.00,0.00,0.00,0.00,2
-0.02,0.02,-1.25,2.62,-0.18,-0.73,0.00,0.00,0.00,0.00,2
-0.02,0.03,-1.25,2.56,0.00,-0.67,0.00,0.00,0.00,0.00,2
-0.02,0.03,-1.24,2.93,0.06,-0.61,0.00,0.00,0.00,0.00,2
-0.02,0.04,-1.25,3.17,0.06,-0.61,0.00,0.00,0.00,0.00,2
-0.02,0.04,-1.25,2.32,0.24,-0.92,0.00,0.00,0.00,0.00,2
-0.02,0.03,-1.25,1.95,0.24,-1.89,0.00,0.00,0.00,0.00,2
-0.02,0.03,-1.25,2.20,0.12,-1.10,0.00,0.00,0.00,0.00,2
-0.02,0.03,-1.25,2.20,-0.06,-0.49,0.00,0.00,0.00,0.00,2
-0.02,0.03,-1.25,2.69,-0.06,-0.49,0.00,0.00,0.00,0.00,2
-0.02,0.03,-1.24,2.20,-0.12,-0.98,0.00,0.00,0.00,0.00,2
-0.03,0.07,-1.25,0.55,-3.78,-0.31,0.00,0.00,0.00,0.00,2
-0.01,0.04,-1.24,3.42,0.06,-0.85,0.00,0.00,0.00,0.00,2
-0.02,0.04,-1.25,3.42,-0.24,-0.67,0.00,0.00,0.00,0.00,2
-0.02,0.04,-1.25,2.69,0.06,-0.55,0.00,0.00,0.00,0.00,2
-0.02,0.04,-1.25,3.42,-0.06,-0.55,0.00,0.00,0.00,0.00,2
-0.02,0.04,-1.26,2.56,0.12,-0.85,0.00,0.00,0.00,0.00,2
-0.02,0.04,-1.24,3.11,0.12,-0.55,0.00,0.00,0.00,0.00,2
-0.02,0.04,-1.25,2.87,-0.06,-0.85,0.00,0.00,0.00,0.00,2
-0.02,0.04,-1.25,2.99,0.00,-0.61,0.00,0.00,0.00,0.00,2
-0.02,0.04,-1.25,2.87,-0.06,-0.43,0.00,0.00,0.00,0.00,2
-0.02,0.04,-1.25,2.62,0.12,-0.61,0.00,0.00,0.00,0.00,2
-0.02,0.04,-1.25,2.99,0.06,-0.31,0.00,0.00,0.00,0.00,2
-0.02,0.04,-1.24,2.44,0.06,-0.79,0.00,0.00,0.00,0.00,2
-0.02,0.04,-1.25,3.23,0.06,-0.61,0.00,0.00,0.00,0.00,2
-0.02,0.05,-1.25,2.50,-0.37,-0.55,0.00,0.00,0.00,0.00,2
-0.02,0.04,-1.25,2.75,0.31,-0.18,0.00,0.00,0.00,0.00,2
-0.02,0.04,-1.25,3.17,-0.18,-1.04,0.00,0.00,0.00,0.00,2
-0.02,0.04,-1.25,2.87,0.06,-0.49,0.00,0.00,0.00,0.00,2
-0.02,0.04,-1.24,3.30,-0.06,-0.43,0.00,0.00,0.00,0.00,2
-0.02,0.04,-1.24,3.23,0.00,-0.55,0.00,0.00,0.00,0.00,2
-0.02,0.04,-1.25,2.56,-0.06,-0.61,0.00,0.00,0.00,0.00,2
-0.02,0.04,-1.25,2.56,0.24,-0.61,0.00,0.00,0.00,0.00,2
-0.02,0.04,-1.25,3.23,0.06,-0.49,0.00,0.00,0.00,0.00,2
-0.02,0.04,-1.25,3.48,0.12,-0.43,0.00,0.00,0.00,0.00,2
-0.02,0.04,-1.25,3.30,0.06,-0.43,0.00,0.00,0.00,0.00,2
-0.02,0.04,-1.24,3.30,0.00,-0.31,0.00,0.00,0.00,0.00,2
-0.02,0.04,-1.25,3.30,0.06,-0.73,0.00,0.00,0.00,0.00,2
-0.02,0.04,-1.25,2.99,0.06,-0.55,0.00,0.00,0.00,0.00,2
-0.02,0.04,-1.24,2.75,0.43,-0.73,0.00,0.00,0.00,0.00,2
-0.03,0.04,-1.25,2.99,0.12,-0.49,0.00,0.00,0.00,0.00,2
0.01,0.01,-1.24,-10.01,9.46,3.42,0.00,0.00,0.00,0.00,2
-0.16,0.03,-1.22,-3.23,16.42,7.75,0.00,0.00,0.00,0.00,2
-0.05,0.07,-1.25,3.36,-4.58,-2.44,0.00,0.00,0.00,0.00,2
-0.05,0.06,-1.26,2.87,-1.89,-0.55,0.00,0.00,0.00,0.00,2
-0.05,0.04,-1.25,3.05,-0.06,-1.28,0.00,0.00,0.00,0.00,2
-0.05,0.08,-1.25,2.87,-0.18,-3.97,0.00,0.00,0.00,0.00,2
-0.08,0.07,-1.26,8.79,-17.70,2.08,0.00,0.00,0.00,0.00,2
-0.05,0.09,-1.25,2.62,0.73,1.34,0.00,0.00,0.00,0.00,2
-0.05,0.02,-1.22,-10.31,-1.10,-1.71,0.00,0.00,0.00,0.00,2
-0.01,0.06,-1.23,1.40,-3.42,1.16,0.00,0.00,0.00,0.00,2
-0.03,0.05,-1.25,2.81,-1.34,-0.61,0.00,0.00,0.00,0.00,2
-0.02,0.05,-1.25,2.69,-0.12,-0.79,0.00,0.00,0.00,0.00,2
-0.06,0.03,-1.25,-1.34,-7.45,1.10,0.00,0.00,0.00,0.00,2
-0.03,-0.06,-1.23,7.02,0.37,3.30,0.00,0.00,0.00,0.00,2
-0.01,0.04,-1.25,-1.04,1.77,1.16,0.00,0.00,0.00,0.00,2
-0.01,-0.09,-1.23,-2.38,-0.18,5.49,0.00,0.00,0.00,0.00,2
-0.04,-0.09,-1.24,2.93,-4.82,-0.18,0.00,0.00,0.00,0.00,2
-0.03,-0.05,-1.27,2.50,-1.40,-2.69,0.00,0.00,0.00,0.00,2
-0.11,-0.04,-1.25,-20.69,5.49,4.94,0.00,0.00,0.00,0.00,2
-0.10,-0.00,-1.26,5.74,-5.80,-4.70,0.00,0.00,0.00,0.00,2
-0.08,-0.00,-1.25,2.87,1.28,-1.71,0.00,0.00,0.00,0.00,2
-0.08,-0.02,-1.24,6.41,-0.85,2.20,0.00,0.00,0.00,0.00,2
-0.11,-0.02,-1.24,12.21,-1.65,2.26,0.00,0.00,0.00,0.00,2
-0.15,0.02,-1.23,2.38,-0.18,-3.85,0.00,0.00,0.00,0.00,2
-0.16,0.02,-1.24,2.62,-0.12,-0.55,0.00,0.00,0.00,0.00,2
-0.15,0.02,-1.24,2.87,-0.92,-4.27,0.00,0.00,0.00,0.00,2
-0.13,0.04,-1.23,1.71,2.38,-0.79,0.00,0.00,0.00,0.00,2
-0.18,0.00,-1.23,2.75,0.00,-2.44,0.00,0.00,0.00,0.00,2
-0.16,0.02,-1.25,3.17,1.89,5.37,0.00,0.00,0.00,0.00,2
-0.15,0.03,-1.25,3.48,-2.01,-0.37,0.00,0.00,0.00,0.00,2
-0.16,0.02,-1.24,2.93,-0.37,-2.14,0.00,0.00,0.00,0.00,2
-0.12,0.04,-1.24,1.46,2.87,0.06,0.00,0.00,0.00,0.00,2
-0.03,0.05,-1.27,8.79,3.85,2.14,0.00,0.00,0.00,0.00,2
-0.03,0.01,-1.25,3.11,0.12,-0.18,0.00,0.00,0.00,0.00,2
-0.03,0.02,-1.26,2.81,-0.73,-0.43,0.00,0.00,0.00,0.00,2
-0.03,0.02,-1.25,2.75,0.24,-0.43,0.00,0.00,0.00,0.00,2
-0.03,0.01,-1.25,2.14,0.31,-1.04,0.00,0.00,0.00,0.00,2
-0.03,0.02,-1.25,3.05,-0.31,-0.55,0.00,0.00,0.00,0.00,2
-0.03,0.01,-1.25,3.48,0.12,-0.18,0.00,0.00,0.00,0.00,2
-0.03,0.01,-1.24,2.87,0.24,-0.49,0.00,0.00,0.00,0.00,2
-0.02,0.01,-1.24,2.81,-0.79,-0.61,0.00,0.00,0.00,0.00,2
-0.02,0.01,-1.24,2.56,-0.49,-0.37,0.00,0.00,0.00,0.00,2
-0.03,0.01,-1.24,2.38,0.12,-0.92,0.00,0.00,0.00,0.00,2
-0.03,0.02,-1.25,3.11,-0.37,-0.73,0.00,0.00,0.00,0.00,2
-0.03,0.02,-1.25,3.05,-0.49,-0.73,0.00,0.00,0.00,0.00,2
-0.03,0.02,-1.25,2.26,-0.43,-0.73,0.00,0.00,0.00,0.00,2
-0.03,0.01,-1.24,2.32,0.00,-0.92,0.00,0.00,0.00,0.00,2
-0.04,0.02,-1.26,-11.35,-4.03,1.53,0.00,0.00,0.00,0.00,2
-0.01,0.03,-1.23,3.11,0.79,4.70,0.00,0.00,0.00,0.00,2
-0.05,0.03,-1.29,3.23,-0.79,1.53,0.00,0.00,0.00,0.00,2
-0.04,0.08,-1.24,2.38,3.17,-2.75,0.00,0.00,0.00,0.00,2
-0.05,0.08,-1.25,2.50,-0.67,1.28,0.00,0.00,0.00,0.00,2
-0.03,0.05,-1.25,4.21,-0.18,-0.31,0.00,0.00,0.00,0.00,2
-0.04,0.05,-1.24,1.77,2.62,-1.77,0.00,0.00,0.00,0.00,2
-0.02,0.05,-1.25,0.06,0.18,-1.46,0.00,0.00,0.00,0.00,2
-0.02,0.05,-1.25,3.54,0.12,-0.55,0.00,0.00,0.00,0.00,2
-0.03,0.05,-1.25,2.01,-0.12,-0.85,0.00,0.00,0.00,0.00,2
-0.03,0.05,-1.25,2.69,0.24,-0.43,0.00,0.00,0.00,0.00,2
-0.03,0.05,-1.25,2.62,-0.24,-0.55,0.00,0.00,0.00,0.00,2
-0.03,0.05,-1.26,-0.37,-0.98,0.18,0.00,0.00,0.00,0.00,2
-0.03,0.05,-1.25,2.81,0.00,-0.49,0.00,0.00,0.00,0.00,2
-0.03,0.05,-1.25,1.04,0.18,-0.92,0.00,0.00,0.00,0.00,2
-0.02,0.07,-1.25,2.75,0.37,-0.43,0.00,0.00,0.00,0.00,2
-0.10,-0.08,-1.29,2.62,-12.70,0.92,0.00,0.00,0.00,0.00,2
-0.01,-0.10,-1.22,2.26,-0.73,-0.98,0.00,0.00,0.00,0.00,2
-0.06,0.06,-1.25,4.76,-2.75,7.14,0.00,0.00,0.00,0.00,2
-0.05,0.07,-1.25,2.26,0.73,0.31,0.00,0.00,0.00,0.00,2
-0.05,0.07,-1.24,-0.79,2.81,-0.43,0.00,0.00,0.00,0.00,2
-0.07,0.01,-1.26,0.92,-1.89,-8.91,0.00,0.00,0.00,0.00,2
-0.03,0.09,-1.23,2.26,-1.77,-1.95,0.00,0.00,0.00,0.00,2
-0.01,0.02,-1.23,17.88,-0.31,8.24,0.00,0.00,0.00,0.00,2
-0.04,0.04,-1.24,4.15,-0.43,0.79,0.00,0.00,0.00,0.00,2
-0.06,0.00,-1.24,-13.18,9.22,4.21,0.00,0.00,0.00,0.00,2
-0.09,0.05,-1.25,5.00,-4.33,-0.67,0.00,0.00,0.00,0.00,2
-0.09,0.04,-1.25,4.39,-3.54,-0.98,0.00,0.00,0.00,0.00,2
-0.16,0.02,-1.24,1.34,2.99,-0.24,0.00,0.00,0.00,0.00,2
-0.16,0.02,-1.25,3.23,-1.22,0.24,0.00,0.00,0.00,0.00,2
-0.16,0.02,-1.24,2.75,-0.24,-0.61,0.00,0.00,0.00,0.00,2
-0.14,0.02,-1.25,2.93,-0.24,-0.73,0.00,0.00,0.00,0.00,2
-0.13,0.03,-1.24,4.27,-2.99,2.62,0.00,0.00,0.00,0.00,2
-0.16,0.02,-1.25,2.38,-0.31,-0.18,0.00,0.00,0.00,0.00,2
-0.14,0.02,-1.24,2.75,0.00,-0.43,0.00,0.00,0.00,0.00,2
-0.14,0.02,-1.24,3.66,-2.20,-0.55,0.00,0.00,0.00,0.00,2
-0.15,0.02,-1.24,2.93,-0.18,-0.61,0.00,0.00,0.00,0.00,2
-0.14,0.02,-1.24,2.87,-0.49,-0.43,0.00,0.00,0.00,0.00,2
-0.15,0.02,-1.24,2.87,-0.12,-0.49,0.00,0.00,0.00,0.00,2
-0.15,0.02,-1.20,2.44,0.55,-0.73,0.00,0.00,0.00,0.00,2
-0.15,0.02,-1.24,2.99,0.31,-0.43,0.00,0.00,0.00,0.00,2
-0.15,0.03,-1.22,2.87,0.31,-0.61,0.00,0.00,0.00,0.00,2
-0.15,0.02,-1.25,3.11,-1.34,-0.24,0.00,0.00,0.00,0.00,2
-0.15,0.02,-1.24,2.87,0.43,-0.55,0.00,0.00,0.00,0.00,2
-0.14,0.03,-1.24,13.85,-28.50,-12.45,0.00,0.00,0.00,0.00,2
-0.07,0.02,-1.27,-17.03,-0.55,-16.60,0.00,0.00,0.00,0.00,2
-0.04,0.00,-1.26,-4.46,0.06,2.56,0.00,0.00,0.00,0.00,2
-0.12,0.04,-1.24,-2.93,10.19,-9.70,0.00,0.00,0.00,0.00,2
-0.15,0.02,-1.24,3.30,-1.28,-0.43,0.00,0.00,0.00,0.00,2
-0.13,0.04,-1.25,2.93,-0.43,0.06,0.00,0.00,0.00,0.00,2
-0.12,0.04,-1.25,8.61,-14.47,-0.12,0.00,0.00,0.00,0.00,2
-0.11,-0.00,-1.22,7.45,-0.92,1.53,0.00,0.00,0.00,0.00,2
-0.09,0.06,-1.25,1.16,3.36,2.08,0.00,0.00,0.00,0.00,2
-0.12,0.03,-1.24,-1.22,9.83,0.12,0.00,0.00,0.00,0.00,2
-0.15,0.02,-1.24,2.69,0.12,-0.55,0.00,0.00,0.00,0.00,2
-0.15,0.02,-1.24,2.93,0.18,-0.12,0.00,0.00,0.00,0.00,2
-0.16,0.02,-1.24,2.44,0.00,-0.31,0.00,0.00,0.00,0.00,2
-0.02,0.05,-1.24,0.18,2.62,-4.46,0.00,0.00,0.00,0.00,2
-0.03,0.04,-1.27,1.40,2.75,-0.67,0.00,0.00,0.00,0.00,2
-0.08,0.09,-1.21,1.04,2.99,-0.61,0.00,0.00,0.00,0.00,2
-0.16,0.02,-1.24,2.93,0.24,-0.43,0.00,0.00,0.00,0.00,2
-0.17,0.01,-1.24,3.11,0.00,1.53,0.00,0.00,0.00,0.00,2
-0.16,0.02,-1.24,2.99,0.18,-0.55,0.00,0.00,0.00,0.00,2
-0.16,0.01,-1.24,2.75,0.00,-0.55,0.00,0.00,0.00,0.00,2
-0.16,0.01,-1.24,2.81,0.18,-0.55,0.00,0.00,0.00,0.00,2
-0.16,0.02,-1.24,2.75,0.00,-0.31,0.00,0.00,0.00,0.00,2
-0.16,0.02,-1.24,2.99,0.24,-0.61,0.00,0.00,0.00,0.00,2
-0.16,0.02,-1.24,2.93,-0.18,-0.49,0.00,0.00,0.00,0.00,2
-0.16,0.02,-1.24,2.69,-0.06,-0.61,0.00,0.00,0.00,0.00,2
-0.16,0.02,-1.24,2.75,0.00,-0.37,0.00,0.00,0.00,0.00,2
-0.16,0.02,-1.24,2.75,0.00,-0.55,0.00,0.00,0.00,0.00,2
-0.16,0.01,-1.24,2.81,0.06,-0.43,0.00,0.00,0.00,0.00,2
-0.16,0.01,-1.23,2.87,0.12,-0.49,0.00,0.00,0.00,0.00,2
-0.04,0.03,-1.24,7.39,1.40,1.77,0.00,0.00,0.00,0.00,2
-0.05,0.05,-1.22,4.58,-0.24,0.00,0.00,0.00,0.00,0.00,2
-0.01,0.06,-1.25,2.56,0.31,-0.37,0.00,0.00,0.00,0.00,2
-0.02,-0.01,-1.24,19.41,-0.85,2.93,0.00,0.00,0.00,0.00,2
0.05,0.02,-1.22,16.17,-0.61,11.90,0.00,0.00,0.00,0.00,2
0.04,0.06,-1.27,2.50,-0.43,1.28,0.00,0.00,0.00,0.00,2
0.10,0.05,-1.23,3.60,13.18,-6.16,0.00,0.00,0.00,0.00,2
-0.02,0.06,-1.24,0.06,0.00,-6.23,0.00,0.00,0.00,0.00,2
-0.01,0.03,-1.25,2.87,-3.17,4.09,0.00,0.00,0.00,0.00,2
-0.09,-0.05,-1.24,4.09,-4.15,0.55,0.00,2.85,0.00,0.00,2
-0.08,0.03,-1.26,5.07,0.67,4.46,0.00,2.88,0.00,0.00,2
-0.05,0.07,-1.26,1.59,0.85,-1.59,0.00,2.88,0.00,0.00,2
-0.02,0.10,-1.19,1.83,-0.92,1.65,0.00,2.91,0.00,0.00,2
-0.07,0.07,-1.21,4.70,2.50,2.62,0.00,2.92,0.00,0.00,2
-0.03,0.06,-1.25,0.92,5.49,-3.36,0.00,2.89,0.00,0.00,2
-0.03,0.05,-1.24,3.05,0.92,-0.49,0.00,2.89,0.00,0.00,2
-0.02,0.05,-1.24,2.93,0.24,1.04,0.00,2.89,0.00,0.00,2
-0.03,0.06,-1.25,2.62,-0.24,-0.61,0.00,3.70,0.00,0.00,2
-0.03,0.06,-1.25,2.14,-1.28,-0.73,0.00,2.88,0.00,0.00,2
-0.00,0.04,-1.21,2.01,-1.28,-0.73,0.00,2.93,0.00,0.00,2
-0.05,0.06,-1.25,7.26,-0.31,-1.77,0.00,2.88,0.00,0.00,2
-0.06,0.06,-1.25,2.75,0.61,0.37,0.00,2.89,0.00,0.00,2
-0.12,0.03,-1.24,-1.34,8.73,-0.43,0.00,0.00,0.00,0.00,2
-0.05,0.02,-1.28,-14.04,-3.23,4.03,0.00,0.00,0.00,0.00,2
-0.02,0.01,-1.23,-9.64,0.85,-2.75,0.00,0.00,0.00,0.00,2
-0.02,-0.00,-1.24,2.99,0.00,-0.67,0.00,0.00,0.00,0.00,2
-0.02,0.00,-1.25,3.30,-0.12,-0.61,0.00,0.00,0.00,0.00,2
-0.02,-0.00,-1.25,2.38,0.12,-0.55,0.00,0.00,0.00,0.00,2
-0.04,0.05,-1.23,2.62,10.50,-4.64,0.00,0.00,0.00,0.00,2
-0.07,0.11,-1.26,-0.06,0.43,-1.77,0.00,0.00,0.00,0.00,2
-0.07,0.06,-1.23,2.01,1.10,-0.92,0.00,0.00,0.00,0.00,2
-0.08,0.06,-1.24,2.69,0.18,-0.43,0.00,0.00,0.00,0.00,2
-0.14,0.03,-1.23,3.17,0.43,3.97,0.00,0.00,0.00,0.00,2
-0.13,0.04,-1.24,2.75,0.31,-0.18,0.00,0.00,0.00,0.00,2
-0.14,0.03,-1.24,3.42,-0.24,-0.61,0.00,0.00,0.00,0.00,2
-0.14,0.03,-1.25,2.44,0.18,-0.67,0.00,0.00,0.00,0.00,2
-0.14,0.03,-1.24,3.30,-1.28,-0.61,0.00,0.00,0.00,0.00,2
-0.08,0.06,-1.25,2.75,-4.94,-0.61,0.00,0.00,0.00,0.00,2
-0.06,0.08,-1.24,3.17,-2.56,6.04,0.00,0.00,0.00,0.00,2
-0.06,0.06,-1.25,2.81,0.18,-0.61,0.00,0.00,0.00,0.00,2
-0.11,0.03,-1.24,2.62,0.37,5.31,0.00,0.00,0.00,0.00,2
-0.06,0.06,-1.25,2.50,-0.85,-0.37,0.00,0.00,0.00,0.00,2
-0.06,0.07,-1.24,2.44,1.28,-0.55,0.00,0.00,0.00,0.00,2
-0.09,0.05,-1.25,4.21,-3.54,-0.61,0.00,0.00,0.00,0.00,2
-0.06,0.06,-1.25,3.05,-0.24,1.10,0.00,0.00,0.00,0.00,2
-0.13,0.03,-1.24,2.20,2.20,-0.37,0.00,0.00,0.00,0.00,2
-0.13,0.03,-1.23,2.62,0.73,-0.37,0.00,0.00,0.00,0.00,2
-0.15,0.03,-1.23,2.69,-0.12,-0.49,0.00,0.00,0.13,0.00,2
-0.10,0.02,-1.26,6.59,-6.96,-1.10,0.00,0.00,0.15,0.00,2
-0.13,0.03,-1.25,3.91,-2.75,-0.85,0.00,0.00,0.00,0.00,2
-0.15,0.03,-1.24,3.05,-0.67,-0.37,0.00,0.00,0.17,0.00,2
-0.15,0.02,-1.24,3.11,-1.16,-0.43,0.00,0.00,0.14,0.00,2
-0.15,0.02,-1.24,3.66,-2.14,-0.67,0.00,0.00,0.00,0.00,2
-0.15,0.03,-1.24,2.08,1.89,-0.67,0.00,0.00,0.00,0.00,2
-0.14,0.03,-1.24,-0.61,8.42,0.06,0.00,0.00,0.16,0.00,2
-0.06,0.07,-1.25,-3.78,13.98,-11.60,0.00,0.00,0.16,0.00,2
-0.15,0.04,-1.23,4.15,-0.12,11.72,0.00,0.00,0.15,0.00,2
-0.14,0.03,-1.24,3.85,-2.87,-0.67,0.00,0.00,0.16,0.00,2
-0.14,0.03,-1.24,3.05,-0.24,-0.49,0.00,2.88,0.21,0.00,2
-0.15,0.03,-1.24,2.87,-0.24,-0.67,0.00,3.47,0.22,0.00,2
-0.14,0.03,-1.24,2.62,-0.24,-0.49,0.00,2.89,0.22,0.00,2
-0.14,0.03,-1.25,2.93,-0.18,-0.55,0.00,2.87,0.22,0.00,2
-0.12,0.04,-1.24,2.56,0.73,-0.67,0.00,0.00,0.15,0.00,2
-0.12,0.04,-1.25,2.93,0.24,-0.43,0.00,0.00,0.16,0.00,2
-0.12,0.04,-1.24,2.93,-0.18,-0.43,0.00,0.00,0.16,0.00,2
-0.04,0.02,-1.21,-23.56,-2.01,-3.97,0.00,0.00,0.16,0.00,2
-0.04,0.02,-1.25,2.75,0.37,-0.31,0.00,0.00,0.17,0.00,2
-0.03,0.02,-1.25,5.86,-0.18,0.31,0.00,0.00,0.17,0.00,2
-0.03,0.03,-1.24,-1.77,0.61,-2.20,0.00,2.80,0.22,0.00,2
-0.02,0.02,-1.24,2.50,0.00,-0.31,0.00,2.89,0.22,0.00,2
-0.02,0.04,-1.25,0.49,-0.49,-1.46,0.00,2.90,0.22,0.00,2
-0.02,0.03,-1.24,3.05,0.18,-0.61,0.00,4.34,0.23,0.00,2
-0.02,0.04,-1.25,3.05,0.06,-0.67,0.00,4.15,0.23,0.00,2
-0.02,0.04,-1.24,3.11,0.12,-0.49,0.00,2.91,0.21,0.00,2
-0.02,0.04,-1.25,2.20,-0.12,-0.55,0.00,3.66,0.22,0.00,2
0.00,0.01,-1.20,14.10,0.31,7.75,0.00,2.89,0.21,0.00,2
-0.02,0.06,-1.25,4.58,0.43,-0.49,0.00,2.89,0.22,0.00,2
-0.07,0.06,-1.25,2.69,-1.77,-0.73,0.00,2.85,0.22,0.00,2
-0.09,0.05,-1.23,0.18,6.41,-0.24,0.00,2.88,0.22,0.00,2
-0.01,0.04,-1.22,7.51,9.58,5.37,0.00,2.91,0.21,0.00,2
0.02,0.12,-1.11,-3.36,15.75,-2.26,0.00,2.87,0.20,0.00,2
-0.06,0.10,-1.24,0.24,7.32,-3.05,0.00,2.88,0.20,0.00,2
-0.06,0.05,-1.24,3.11,-0.12,2.38,0.00,2.90,0.20,0.00,2
-0.06,0.05,-1.24,3.17,-0.49,0.18,0.00,2.90,0.21,0.00,2
-0.05,0.06,-1.24,2.93,0.37,-4.33,0.00,2.89,0.20,0.00,2
-0.05,0.06,-1.25,2.75,-0.18,-0.43,0.00,3.62,0.00,0.00,2
-0.05,0.06,-1.24,3.11,-1.10,-0.67,0.00,2.89,0.00,0.00,2
-0.05,0.06,-1.24,2.14,-1.89,-0.55,0.00,2.89,0.00,0.00,2
-0.06,0.05,-1.26,3.48,-0.24,-0.67,0.00,2.85,0.12,0.00,2
-0.06,0.06,-1.24,3.05,-1.65,-0.61,0.00,3.54,0.00,0.00,2
-0.08,0.06,-1.25,-2.01,12.63,0.24,0.00,2.95,0.00,0.00,2
-0.11,0.04,-1.25,3.42,-1.34,-0.73,0.00,3.27,0.11,0.00,2
-0.07,0.04,-1.24,4.27,-0.18,1.77,0.00,2.87,0.00,0.00,2
-0.03,0.06,-1.25,0.18,-4.03,-2.99,0.00,2.86,0.00,0.00,2
-0.04,0.07,-1.24,2.81,-0.92,-0.49,0.00,2.84,0.00,0.00,2
-0.05,0.16,-1.24,2.26,1.04,-5.19,0.00,2.86,0.00,0.00,2
-0.05,0.04,-1.23,5.74,-0.98,0.00,0.00,2.85,0.18,0.00,2
-0.07,0.06,-1.25,1.83,-7.20,-7.81,0.00,2.85,0.00,0.00,2
-0.03,0.02,-1.23,7.57,2.99,-0.92,0.00,0.00,0.00,0.00,2
-0.03,0.06,-1.26,5.31,-0.31,0.92,0.00,2.86,0.21,0.00,2
-0.02,0.06,-1.24,0.00,-4.88,-1.04,0.00,2.85,0.00,0.00,2
-0.02,0.04,-1.25,0.55,-1.22,-2.75,0.00,2.84,0.00,0.00,2
-0.04,0.10,-1.28,1.28,-2.20,0.00,0.00,2.91,0.00,0.00,2
-0.07,0.06,-1.24,4.64,3.72,-2.20,0.00,2.87,0.00,0.00,2
-0.03,0.05,-1.24,3.05,0.06,-0.24,0.00,2.90,0.00,0.00,2
-0.02,0.05,-1.24,3.11,0.61,-0.67,0.00,2.88,0.00,0.00,2
-0.01,0.04,-1.22,2.26,-1.10,-0.67,0.00,2.85,0.00,0.00,2
-0.08,0.01,-1.24,1.53,-2.75,-2.44,0.00,3.48,0.00,0.00,2
-0.02,0.05,-1.23,2.81,0.79,-3.91,0.00,2.80,0.00,0.00,2
-0.02,0.08,-1.25,4.82,3.72,-0.18,0.00,2.82,0.21,0.00,2
-0.04,0.05,-1.25,2.99,0.18,-0.49,0.00,2.80,0.21,0.00,2
-0.04,0.04,-1.27,7.57,9.28,-4.82,0.00,2.80,0.22,0.00,2
0.00,0.04,-1.22,5.74,7.63,-0.61,0.00,2.84,0.22,0.00,2
-0.03,0.08,-1.27,3.36,1.53,2.56,0.00,2.86,0.18,0.00,2
-0.01,0.07,-1.23,4.70,3.17,3.66,0.00,3.06,0.12,0.00,2
-0.04,0.02,-1.26,4.33,0.79,-3.48,0.00,2.88,0.13,0.00,2
-0.03,0.07,-1.27,-0.55,-8.42,-1.77,0.00,2.89,0.09,0.00,2
-0.03,0.03,-1.26,3.17,-0.85,1.04,0.00,2.88,0.19,0.00,2
-0.11,0.33,-1.23,-8.67,-12.08,-11.90,0.00,2.94,0.22,0.00,2
-0.02,0.04,-1.24,4.15,0.43,0.06,0.00,2.87,0.18,0.00,2
-0.02,0.07,-1.28,-6.41,0.24,-5.07,0.00,2.88,0.19,0.00,2
-0.02,0.05,-1.25,10.07,-0.37,1.77,0.00,2.83,0.18,0.00,2
0.07,0.09,-1.03,-17.03,1.77,0.49,0.00,2.81,0.15,0.00,2
-0.03,0.04,-1.25,2.93,0.98,-3.91,0.00,3.51,0.15,0.00,2
-0.03,0.06,-1.25,1.40,-2.20,-10.68,0.00,2.80,0.00,0.00,2
-0.03,0.06,-1.24,2.56,-0.06,-0.37,0.00,2.80,0.00,0.00,2
-0.03,-0.02,-1.26,6.84,-2.08,1.40,0.00,2.69,0.00,0.00,2
-0.04,0.05,-1.25,12.57,-6.65,-3.48,0.00,2.70,0.23,0.00,2
-0.04,0.06,-1.24,2.99,0.18,-0.31,0.00,2.88,0.20,0.00,2
-0.04,0.06,-1.26,3.78,2.69,-0.31,0.00,2.85,0.20,0.00,2
-0.04,0.06,-1.24,3.23,0.49,0.00,0.00,2.84,0.20,0.00,2
-0.04,0.06,-1.24,2.99,0.06,-0.31,0.00,2.80,0.19,0.00,2
-0.04,0.07,-1.25,2.75,0.12,-0.55,0.00,3.28,0.21,0.00,2
-0.04,0.07,-1.25,2.87,0.12,-0.67,0.00,2.82,0.20,0.00,2
-0.04,0.06,-1.25,2.62,0.24,-0.67,0.00,2.82,0.20,0.00,2
-0.05,0.07,-1.24,2.81,0.06,-0.43,0.00,3.21,0.18,0.00,2
-0.04,0.07,-1.24,2.69,-0.31,-0.55,0.00,3.34,0.19,0.00,2
-0.04,0.06,-1.25,2.99,0.00,-0.85,0.00,2.80,0.19,0.00,2
-0.08,0.08,-1.24,1.28,3.72,-0.49,0.00,3.46,0.20,0.00,2
-0.04,0.07,-1.25,3.91,3.11,-0.61,0.00,2.80,0.16,0.00,2
-0.05,0.06,-1.25,2.69,0.98,-0.43,0.00,2.80,0.18,0.00,2
-0.05,0.06,-1.25,2.75,0.43,-0.49,0.00,2.79,0.18,0.00,2
-0.05,0.07,-1.24,2.75,0.12,-0.31,0.00,2.78,0.16,0.00,2
-0.05,0.06,-1.24,2.99,0.31,-0.67,0.00,2.79,0.17,0.00,2
-0.05,0.06,-1.25,2.93,0.06,-0.55,0.00,2.77,0.17,0.00,2
-0.05,0.06,-1.24,2.93,0.12,-0.43,0.00,2.77,0.16,0.00,2
-0.05,0.07,-1.24,2.93,0.12,-0.67,0.00,2.79,0.16,0.00,2
-0.05,0.06,-1.25,2.87,-0.24,-0.67,0.00,2.79,0.17,0.00,2
-0.05,0.07,-1.26,2.69,0.12,-0.67,0.00,2.76,0.16,0.00,2
-0.05,0.06,-1.24,2.87,0.12,-0.37,0.00,2.77,0.15,0.00,2
-0.05,0.06,-1.25,3.05,0.00,-0.49,0.00,2.76,0.15,0.00,2
-0.05,0.07,-1.25,2.69,0.24,-0.37,0.00,2.79,0.15,0.00,2
-0.05,0.07,-1.24,2.93,0.18,-0.55,0.00,2.81,0.16,0.00,2
-0.05,0.06,-1.24,2.99,-0.37,-0.55,0.00,2.81,0.15,0.00,2
-0.05,0.06,-1.25,2.99,-0.12,-0.73,0.00,2.81,0.15,0.00,2
-0.05,0.07,-1.25,2.93,0.12,-0.61,0.00,2.78,0.15,0.00,2
-0.05,0.07,-1.25,2.99,-0.12,-0.43,0.00,2.81,0.15,0.00,2
-0.04,0.07,-1.25,2.69,-0.12,-0.49,0.00,2.79,0.14,0.00,2
-0.04,0.06,-1.24,2.93,-0.24,0.73,0.00,0.28,0.08,0.00,2
-0.04,0.06,-1.25,3.05,-0.24,0.92,0.00,0.00,0.09,0.00,2
-0.04,0.05,-1.25,3.36,-0.85,11.41,0.00,2.83,0.14,0.00,2
-0.04,0.06,-1.25,3.17,-0.12,1.46,0.00,2.80,0.15,0.00,2
-0.04,0.07,-1.24,2.56,-0.31,-0.85,0.00,0.00,0.08,0.00,2
-0.05,0.07,-1.24,2.38,1.53,-0.55,0.00,2.88,0.10,0.00,2
-0.05,0.06,-1.25,2.93,0.12,-0.49,0.00,2.90,0.10,0.00,2
-0.04,0.06,-1.25,2.87,0.06,-0.55,0.00,3.42,0.10,0.00,2
-0.06,0.05,-1.25,3.05,-0.06,-0.24,0.00,2.83,0.10,0.00,2
-0.05,0.06,-1.26,3.48,-2.38,-0.49,0.00,3.46,0.07,0.00,2
-0.05,0.07,-1.25,2.32,2.14,-0.55,0.00,2.87,0.05,0.00,2
-0.04,0.07,-1.25,2.93,0.31,-0.55,0.00,2.80,0.05,0.00,2
-0.05,0.07,-1.24,2.56,-0.98,-0.61,0.00,3.34,0.05,0.00,2
-0.05,0.06,-1.25,2.69,0.43,-0.43,0.00,2.80,0.04,0.00,2
-0.03,0.04,-1.24,2.56,0.18,2.32,0.00,2.79,0.00,0.00,2
-0.04,0.07,-1.23,2.62,1.10,-0.49,0.00,3.51,0.00,0.00,2
-0.05,0.07,-1.24,3.17,-1.22,-0.55,0.00,2.79,0.00,0.00,2
-0.04,0.07,-1.25,2.87,0.00,-1.71,0.00,2.80,0.00,0.00,2
-0.04,0.07,-1.25,2.69,0.06,-0.67,0.00,3.41,0.00,0.00,2
-0.04,0.06,-1.24,3.17,0.24,-0.92,0.00,2.79,0.00,0.00,2
-0.04,0.07,-1.24,2.75,0.24,-0.67,0.00,2.77,0.00,0.00,2
-0.04,0.07,-1.25,2.62,-0.43,-0.37,0.00,2.78,0.00,0.00,2
0.03,0.05,-1.17,8.12,13.73,-0.92,0.00,2.79,0.00,0.00,2
-0.04,0.06,-1.25,2.14,2.50,-0.67,0.00,3.47,0.00,0.00,2
-0.04,0.07,-1.25,2.62,-0.61,-0.43,0.00,3.46,0.00,0.00,2
-0.04,0.06,-1.25,3.11,0.00,-0.67,0.00,2.92,0.00,0.00,2
-0.04,0.08,-1.25,1.71,-2.14,1.16,0.00,0.07,0.00,0.00,2
-0.02,0.06,-1.25,2.81,0.92,-0.85,0.00,0.00,0.00,0.00,2
-0.04,0.12,-1.24,2.93,-0.61,1.83,0.00,0.00,0.00,0.00,2
-0.05,0.07,-1.25,2.87,0.37,-2.20,0.00,0.00,0.00,0.00,2
-0.02,0.05,-1.24,2.81,0.24,-0.67,0.00,3.27,0.00,0.00,2
-0.03,0.05,-1.24,1.53,-2.62,-0.61,0.00,0.00,0.00,0.00,2
0.01,0.05,-1.19,2.20,1.53,0.18,0.00,0.00,0.00,0.00,2
-0.05,0.07,-1.25,2.81,-0.12,-0.43,0.00,3.01,0.00,0.00,2
-0.02,0.05,-1.24,2.69,0.18,-0.55,0.00,3.60,0.00,0.00,2
-0.02,0.05,-1.25,2.44,-0.12,-0.31,0.00,0.00,0.00,0.00,2
-0.03,0.05,-1.25,2.32,-0.24,1.71,0.00,0.00,0.00,0.00,2
-0.04,0.06,-1.25,4.27,2.99,-0.43,0.00,2.84,0.00,0.00,2
-0.05,0.07,-1.25,2.99,-0.12,0.79,0.00,3.41,0.00,0.00,2
-0.05,0.06,-1.24,2.87,0.06,-0.55,0.00,2.86,0.00,0.00,2
-0.04,0.07,-1.25,2.38,1.71,-0.92,0.00,2.87,0.00,0.00,2
-0.04,0.06,-1.25,2.75,1.22,-0.24,0.00,2.85,0.00,0.00,2
-0.04,0.06,-1.24,3.60,1.71,-0.79,0.00,3.27,0.00,0.00,2
0.01,0.10,-1.23,-0.61,-6.71,0.18,0.00,2.80,0.00,0.00,2
-0.03,0.06,-1.24,2.93,0.37,-0.61,0.00,2.79,0.00,0.00,2
-0.04,0.06,-1.24,2.62,0.00,-0.61,0.00,2.79,0.00,0.00,2
-0.03,0.06,-1.23,1.65,-2.44,-0.49,0.00,2.79,0.00,0.00,2
-0.05,0.07,-1.26,2.99,0.37,-0.61,0.00,2.76,0.00,0.00,2
-0.03,0.07,-1.25,2.81,0.55,-1.04,0.00,2.78,0.00,0.00,2
-0.05,0.06,-1.25,2.69,-0.06,-0.43,0.00,0.00,0.00,0.00,2
-0.04,0.06,-1.25,2.99,0.61,-0.55,0.00,0.00,0.00,0.00,2
-0.09,0.08,-1.32,4.09,-4.21,-1.16,0.00,0.00,0.00,0.00,2
-0.04,0.06,-1.25,3.30,1.46,-0.67,0.00,0.00,0.00,0.00,2
-0.04,0.06,-1.25,2.99,0.12,-0.31,0.00,0.00,0.00,0.00,2
-0.04,0.06,-1.25,2.87,0.43,-0.79,0.00,0.00,0.00,0.00,2
-0.04,0.06,-1.24,2.81,-0.12,-0.49,0.00,0.00,0.00,0.00,2
-0.04,0.06,-1.25,3.05,0.31,-0.85,0.00,0.00,0.00,0.00,2
-0.04,0.07,-1.25,2.93,-0.12,-0.55,0.00,0.00,0.00,0.00,2
-0.04,0.06,-1.25,3.23,0.31,-0.67,0.00,0.00,0.00,0.00,2
-0.04,0.06,-1.24,3.05,0.31,-0.55,0.00,0.00,0.00,0.00,2
-0.02,0.06,-1.23,0.49,-4.03,-4.39,0.00,0.00,0.00,0.00,2
-0.04,0.06,-1.25,2.81,-0.12,-0.67,0.00,0.00,0.00,0.00,2
-0.03,0.07,-1.25,2.26,-1.22,-0.43,0.00,0.00,0.00,0.00,2
-0.02,0.07,-1.25,3.54,0.98,-0.67,0.00,0.00,0.00,0.00,2
-0.04,0.06,-1.25,2.69,0.24,-0.49,0.00,0.00,0.00,0.00,2
-0.06,0.07,-1.27,2.26,-0.98,-0.49,0.00,0.00,0.00,0.00,2
-0.04,0.08,-1.24,2.75,0.37,-1.71,0.00,2.93,0.00,0.00,2
-0.04,0.07,-1.25,5.49,5.25,-0.31,0.00,2.86,0.00,0.00,2
-0.04,0.05,-1.24,3.42,1.89,0.98,0.00,2.83,0.00,0.00,2
-0.04,0.06,-1.24,3.54,1.89,-0.67,0.00,0.97,0.00,0.00,2
-0.04,0.08,-1.25,8.42,13.85,-6.47,0.00,2.82,0.00,0.00,2
-0.04,0.07,-1.25,2.69,-0.18,-0.61,0.00,2.79,0.00,0.00,2
-0.02,0.05,-1.25,2.75,0.18,-0.55,0.00,2.83,0.00,0.00,2
-0.04,0.06,-1.25,5.00,5.80,4.58,0.00,2.85,0.00,0.00,2
-0.04,0.07,-1.25,2.38,0.31,-0.67,0.00,3.45,0.00,0.00,2
-0.05,0.07,-1.24,2.99,-0.24,-0.73,0.00,2.86,0.00,0.00,2
-0.04,0.06,-1.25,2.75,0.00,-0.79,0.00,2.84,0.00,0.00,2
-0.06,0.05,-1.24,3.30,-1.10,-4.46,0.00,2.85,0.00,0.00,2
-0.05,0.07,-1.24,3.11,0.24,-0.73,0.00,2.83,0.06,0.00,2
-0.05,0.07,-1.24,4.82,-6.90,0.43,0.00,2.79,0.05,0.00,2
-0.06,0.07,-1.25,0.49,2.26,3.05,0.00,2.85,0.00,0.00,2
-0.07,0.05,-1.25,10.80,0.61,0.37,0.00,2.80,0.18,0.00,2
-0.08,0.02,-1.25,3.78,-0.98,-0.61,0.00,3.32,0.21,0.00,2
-0.06,0.03,-1.24,5.31,0.18,-0.49,0.00,2.76,0.20,0.00,2
-0.04,0.06,-1.24,3.23,-0.85,-0.55,0.00,2.78,0.20,0.00,2
-0.07,0.06,-1.28,2.69,0.55,-2.50,0.00,3.34,0.18,0.00,2
-0.05,0.07,-1.24,2.93,-2.08,1.22,0.00,2.74,0.18,0.00,2
-0.06,0.07,-1.24,2.93,1.95,-0.67,0.00,3.16,0.20,0.00,2
-0.07,0.05,-1.25,2.56,0.00,-3.78,0.00,2.84,0.18,0.00,2
-0.06,0.06,-1.26,3.17,-0.98,-0.24,0.00,2.78,0.00,0.00,2
-0.03,0.04,-1.26,2.75,0.55,1.83,0.00,3.48,0.00,0.00,2
-0.10,0.03,-1.23,4.64,3.85,21.55,0.00,2.72,0.00,0.00,2
-0.04,0.06,-1.24,2.93,1.28,-0.43,0.00,2.68,0.00,0.00,2
-0.06,0.06,-1.25,5.86,-10.31,3.17,0.00,3.37,0.21,0.00,2
-0.04,0.02,-1.21,2.69,-1.04,3.30,0.00,2.89,0.18,0.00,2
-0.03,0.03,-1.25,-7.32,12.88,-8.61,0.00,2.84,0.21,0.00,2
-0.08,0.04,-1.22,1.40,-5.43,-3.54,0.00,3.62,0.21,0.00,2
-0.14,0.03,-1.24,1.89,1.77,-0.79,0.00,2.80,0.13,0.00,2
-0.10,0.00,-1.22,-3.91,-44.98,10.38,0.00,2.79,0.04,0.00,2
-0.05,0.03,-1.25,5.31,0.67,0.67,0.00,2.83,0.10,0.00,2
-0.08,0.04,-1.24,-9.95,12.45,7.51,0.00,2.81,0.07,0.00,2
-0.15,0.02,-1.24,3.54,-0.24,-0.24,0.00,2.82,0.00,0.00,2
-0.05,0.06,-1.25,3.54,0.61,-0.43,0.00,2.77,0.06,0.00,2
-0.04,0.07,-1.25,2.81,0.12,-1.22,0.00,3.45,0.17,0.00,2
-0.05,0.06,-1.25,2.99,-0.49,-0.73,0.00,2.79,0.19,0.00,2
-0.04,0.06,-1.25,2.62,0.06,-0.43,0.00,0.00,0.07,0.00,2
-0.04,0.06,-1.25,2.93,-0.24,-0.61,0.00,0.00,0.00,0.00,2
-0.05,0.06,-1.25,4.27,-5.19,-0.73,0.00,0.00,0.17,0.00,2
-0.05,0.06,-1.25,2.75,0.12,-0.67,0.00,0.00,0.17,0.00,2
-0.04,0.06,-1.25,2.62,0.00,-0.49,0.00,0.00,0.16,0.00,2
-0.04,0.06,-1.24,2.50,-0.73,-0.73,0.00,0.00,0.14,0.00,2
-0.03,0.06,-1.24,2.87,0.24,-0.67,0.00,0.00,0.12,0.00,2
-0.04,0.06,-1.25,1.71,-1.10,-1.04,0.00,0.00,0.10,0.00,2
-0.05,0.06,-1.28,2.99,0.00,-0.37,0.00,0.00,0.10,0.00,2
-0.04,0.06,-1.25,3.42,0.79,-0.31,0.00,0.00,0.10,0.00,2
-0.08,0.07,-1.24,2.26,-0.92,-0.55,0.00,2.67,0.17,0.00,2
-0.00,0.05,-1.26,-2.14,-13.06,1.34,0.00,2.73,0.20,0.00,2
0.02,0.04,-1.24,2.87,0.31,-0.79,0.00,3.28,0.21,0.00,2
-0.03,0.06,-1.26,3.78,2.08,-0.49,0.00,3.26,0.05,0.00,2
-0.04,0.11,-1.22,2.20,1.04,0.98,0.00,3.35,0.24,0.00,2
-0.05,0.07,-1.28,-2.69,-6.29,-3.66,0.00,2.59,0.12,0.00,2
-0.04,0.09,-1.24,2.81,-0.24,1.77,0.00,2.70,0.00,0.00,2
-0.03,0.08,-1.19,0.37,5.98,1.34,0.00,3.30,0.00,0.00,2
-0.04,0.06,-1.24,2.87,-0.06,-0.98,0.00,2.97,0.00,0.00,2
-0.06,0.05,-1.26,4.21,-4.39,-8.91,0.00,2.67,0.24,0.00,2
-0.02,0.07,-1.23,10.19,18.13,-2.75,0.00,3.29,0.06,0.00,2
-0.05,0.06,-1.24,2.32,0.79,-0.61,0.00,3.38,0.21,0.00,2
-0.06,0.05,-1.24,-6.77,0.06,-3.48,0.00,0.55,0.15,0.00,2
-0.04,-0.06,-1.23,1.83,2.75,-10.25,0.00,2.73,0.19,0.00,2
-0.05,0.06,-1.24,2.69,0.73,-3.78,0.00,2.74,0.22,0.00,2
-0.05,0.05,-1.23,2.81,1.16,0.06,0.00,2.72,0.22,0.00,2
-0.06,0.05,-1.26,-0.61,0.67,-0.18,0.00,2.70,0.22,0.00,2
-0.05,0.06,-1.28,4.52,-13.12,1.59,0.00,0.00,0.16,0.00,2
-0.04,0.06,-1.25,2.99,0.06,-0.73,0.00,0.00,0.17,0.00,2
-0.04,0.06,-1.23,2.93,0.55,-0.43,0.00,0.00,0.19,0.00,2
-0.04,0.06,-1.25,2.87,0.61,-1.89,0.00,0.00,0.20,0.00,2
-0.05,0.06,-1.25,2.69,0.18,-0.49,0.00,0.00,0.18,0.00,2
-0.04,0.06,-1.25,2.99,0.06,-0.37,0.00,0.00,0.18,0.00,2
-0.05,0.06,-1.24,2.81,-0.24,-0.73,0.00,0.00,0.18,0.00,2
-0.03,0.04,-1.26,-2.01,-11.41,21.06,0.00,0.00,0.18,0.00,2
-0.07,0.06,-1.25,3.23,0.18,-0.18,0.00,0.00,0.17,0.00,2
-0.07,0.06,-1.25,3.23,0.18,-0.18,0.00,0.00,0.19,0.00,2
-0.07,0.06,-1.25,3.23,0.18,-0.18,0.00,2.50,0.26,0.00,2
-0.07,0.06,-1.25,3.23,0.18,-0.18,0.00,3.37,0.27,0.00,2
-0.07,0.06,-1.25,3.23,0.18,-0.18,0.00,0.00,0.19,0.00,2
-0.07,0.06,-1.25,3.23,0.18,-0.18,0.00,0.00,0.21,0.00,2
-0.07,0.06,-1.25,3.23,0.18,-0.18,0.00,0.00,0.20,0.00,2
-0.07,0.06,-1.25,3.23,0.18,-0.18,0.00,0.00,0.20,0.00,2
-0.07,0.06,-1.25,3.23,0.18,-0.18,0.00,0.00,0.21,0.00,2
-0.07,0.06,-1.25,3.23,0.18,-0.18,0.00,0.00,0.21,0.00,2
-0.07,0.06,-1.25,3.23,0.18,-0.18,0.00,0.00,0.21,0.00,2
-0.07,0.06,-1.25,3.23,0.18,-0.18,0.00,0.00,0.21,0.00,2
-0.07,0.06,-1.25,3.23,0.18,-0.18,0.00,0.00,0.21,0.00,2
-0.07,0.06,-1.25,3.23,0.18,-0.18,0.00,2.69,0.27,0.00,2
-0.07,0.06,-1.25,3.23,0.18,-0.18,0.00,3.32,0.27,0.00,2
-0.07,0.06,-1.25,3.23,0.18,-0.18,0.00,0.00,0.16,0.00,2
-0.07,0.06,-1.25,3.23,0.18,-0.18,0.00,0.00,0.07,0.00,2
-0.07,0.06,-1.25,3.23,0.18,-0.18,0.00,0.00,0.07,0.00,2
-0.07,0.06,-1.25,3.23,0.18,-0.18,0.00,0.00,0.07,0.00,2
-0.07,0.06,-1.25,3.23,0.18,-0.18,0.00,0.00,0.06,0.00,2
-0.07,0.06,-1.25,3.23,0.18,-0.18,0.00,0.00,0.05,0.00,2
-0.07,0.06,-1.25,3.23,0.18,-0.18,0.00,0.00,0.05,0.00,2
-0.07,0.06,-1.25,3.23,0.18,-0.18,0.00,0.00,0.00,0.00,2
-0.07,0.06,-1.25,3.23,0.18,-0.18,0.00,0.00,0.00,0.00,2
-0.07,0.06,-1.25,3.23,0.18,-0.18,0.00,0.00,0.00,0.00,2
-0.07,0.06,-1.25,3.23,0.18,-0.18,0.00,0.00,0.00,0.00,2
-0.07,0.06,-1.25,3.23,0.18,-0.18,0.00,0.00,0.21,0.00,2
-0.07,0.06,-1.25,3.23,0.18,-0.18,0.00,0.00,0.21,0.00,2
-0.07,0.06,-1.25,3.23,0.18,-0.18,0.00,0.00,0.21,0.00,2
-0.07,0.06,-1.25,3.23,0.18,-0.18,0.00,0.00,0.20,0.00,2
-0.07,0.06,-1.25,3.23,0.18,-0.18,0.00,0.00,0.21,0.00,2
-0.07,0.06,-1.25,3.23,0.18,-0.18,0.00,0.00,0.20,0.00,2
-0.07,0.06,-1.25,3.23,0.18,-0.18,0.00,0.00,0.20,0.00,2
-0.07,0.06,-1.25,3.23,0.18,-0.18,0.00,0.00,0.20,0.00,2
-0.07,0.06,-1.25,3.23,0.18,-0.18,0.00,2.67,0.23,0.00,2
-0.07,0.06,-1.25,3.23,0.18,-0.18,0.00,0.00,0.14,0.00,2
-0.07,0.06,-1.25,3.23,0.18,-0.18,0.00,0.00,0.14,0.00,2
-0.07,0.06,-1.25,3.23,0.18,-0.18,0.00,0.00,0.12,0.00,2
-0.07,0.06,-1.25,3.23,0.18,-0.18,0.00,0.00,0.14,0.00,2
-0.07,0.06,-1.25,3.23,0.18,-0.18,0.00,0.00,0.13,0.00,2
-0.07,0.06,-1.25,3.23,0.18,-0.18,0.00,0.00,0.14,0.00,2
-0.07,0.06,-1.25,3.23,0.18,-0.18,0.00,0.00,0.13,0.00,2
-0.07,0.06,-1.25,3.23,0.18,-0.18,0.00,0.00,0.12,0.00,2
-0.07,0.06,-1.25,3.23,0.18,-0.18,0.00,0.00,0.13,0.00,2
-0.07,0.06,-1.25,3.23,0.18,-0.18,0.00,0.00,0.13,0.00,2
-0.07,0.06,-1.25,3.23,0.18,-0.18,0.00,0.00,0.11,0.00,2
-0.07,0.06,-1.25,3.23,0.18,-0.18,0.00,0.00,0.11,0.00,2
-0.07,0.06,-1.25,3.23,0.18,-0.18,0.00,0.00,0.12,0.00,2
-0.07,0.06,-1.25,3.23,0.18,-0.18,0.00,0.00,0.13,0.00,2
-0.07,0.06,-1.25,3.23,0.18,-0.18,0.00,0.00,0.13,0.00,2
-0.07,0.06,-1.25,3.23,0.18,-0.18,0.00,0.00,0.12,0.00,2
-0.07,0.06,-1.25,3.23,0.18,-0.18,0.00,0.00,0.13,0.00,2
-0.07,0.06,-1.25,3.23,0.18,-0.18,0.00,0.00,0.11,0.00,2
-0.07,0.06,-1.25,3.23,0.18,-0.18,0.00,0.00,0.11,0.00,2
-0.07,0.06,-1.25,3.23,0.18,-0.18,0.00,0.00,0.12,0.00,2
-0.07,0.06,-1.25,3.23,0.18,-0.18,0.00,0.00,0.11,0.00,2
-0.07,0.06,-1.25,3.23,0.18,-0.18,0.00,0.00,0.11,0.00,2
-0.07,0.06,-1.25,3.23,0.18,-0.18,0.00,0.00,0.11,0.00,2
-0.07,0.06,-1.25,3.23,0.18,-0.18,0.00,0.00,0.12,0.00,2
-0.07,0.06,-1.25,3.23,0.18,-0.18,0.00,0.00,0.11,0.00,2
-0.07,0.06,-1.25,3.23,0.18,-0.18,0.00,0.00,0.11,0.00,2
-0.07,0.06,-1.25,3.23,0.18,-0.18,0.00,0.00,0.11,0.00,2
-0.07,0.06,-1.25,3.23,0.18,-0.18,0.00,0.00,0.12,0.00,2
-0.07,0.06,-1.25,3.23,0.18,-0.18,0.00,0.00,0.12,0.00,2
-0.07,0.06,-1.25,3.23,0.18,-0.18,0.00,0.00,0.12,0.00,2
-0.07,0.06,-1.25,3.23,0.18,-0.18,0.41,0.00,0.00,0.00,2
-0.07,0.06,-1.25,3.23,0.18,-0.18,0.73,0.00,0.00,0.00,2
-0.07,0.06,-1.25,3.23,0.18,-0.18,0.00,0.00,0.12,0.59,2
-0.07,0.06,-1.25,3.23,0.18,-0.18,0.00,0.00,0.11,0.76,2
-0.07,0.06,-1.25,3.23,0.18,-0.18,0.00,0.00,0.11,0.00,2
-0.07,0.06,-1.25,3.23,0.18,-0.18,0.00,0.00,0.12,0.00,2
-0.07,0.06,-1.25,3.23,0.18,-0.18,0.00,0.00,0.12,0.00,2
-0.07,0.06,-1.25,3.23,0.18,-0.18,0.00,0.00,0.12,0.00,2
-0.07,0.06,-1.25,3.23,0.18,-0.18,0.62,0.00,0.00,0.00,2
-0.07,0.06,-1.25,3.23,0.18,-0.18,0.67,0.00,0.00,0.00,2
-0.07,0.06,-1.25,3.23,0.18,-0.18,0.00,0.00,0.10,0.00,2
-0.07,0.06,-1.25,3.23,0.18,-0.18,0.00,0.00,0.11,0.00,2
-0.07,0.06,-1.25,3.23,0.18,-0.18,0.00,0.00,0.12,0.00,2
-0.07,0.06,-1.25,3.23,0.18,-0.18,0.00,0.00,0.11,0.00,2
-0.07,0.06,-1.25,3.23,0.18,-0.18,0.00,0.00,0.11,0.30,2
-0.07,0.06,-1.25,3.23,0.18,-0.18,0.00,0.00,0.10,0.48,2
-0.07,0.06,-1.25,3.23,0.18,-0.18,0.00,0.00,0.10,0.00,2
-0.07,0.06,-1.25,3.23,0.18,-0.18,0.00,0.00,0.14,0.00,2
-0.07,0.06,-1.25,3.23,0.18,-0.18,0.00,0.00,0.14,0.00,2
-0.07,0.06,-1.25,3.23,0.18,-0.18,0.00,0.00,0.12,0.00,2
-0.07,0.06,-1.25,3.23,0.18,-0.18,0.00,0.00,0.12,0.00,2
-0.07,0.06,-1.25,3.23,0.18,-0.18,0.00,0.00,0.12,0.00,2
-0.07,0.06,-1.25,3.23,0.18,-0.18,0.00,0.00,0.12,0.00,2
-0.07,0.06,-1.25,3.23,0.18,-0.18,0.00,0.00,0.12,0.00,2
-0.07,0.06,-1.25,3.23,0.18,-0.18,0.00,0.00,0.12,0.00,2
-0.07,0.06,-1.25,3.23,0.18,-0.18,0.00,0.00,0.12,0.00,2
-0.07,0.06,-1.25,3.23,0.18,-0.18,0.00,0.00,0.12,0.00,2
-0.07,0.06,-1.25,3.23,0.18,-0.18,0.00,0.00,0.11,0.00,2
-0.07,0.06,-1.25,3.23,0.18,-0.18,0.00,0.00,0.11,0.00,2
-0.07,0.06,-1.25,3.23,0.18,-0.18,0.00,0.00,0.11,0.00,2
-0.07,0.06,-1.25,3.23,0.18,-0.18,0.00,0.00,0.11,0.00,2
-0.07,0.06,-1.25,3.23,0.18,-0.18,0.00,0.00,0.09,0.00,2
-0.07,0.06,-1.25,3.23,0.18,-0.18,0.00,0.00,0.10,0.00,2
-0.07,0.06,-1.25,3.23,0.18,-0.18,0.00,0.00,0.10,0.00,2
-0.07,0.06,-1.25,3.23,0.18,-0.18,0.00,0.00,0.08,0.00,2
-0.07,0.06,-1.25,3.23,0.18,-0.18,0.00,0.00,0.11,0.00,2
-0.07,0.06,-1.25,3.23,0.18,-0.18,0.00,0.00,0.18,0.00,2
-0.07,0.06,-1.25,3.23,0.18,-0.18,0.00,0.00,0.20,0.00,2
-0.07,0.06,-1.25,3.23,0.18,-0.18,0.00,0.00,0.18,0.00,2
-0.07,0.06,-1.25,3.23,0.18,-0.18,0.00,0.00,0.18,0.00,2
-0.07,0.06,-1.25,3.23,0.18,-0.18,0.00,0.00,0.18,0.00,2
-0.07,0.06,-1.25,3.23,0.18,-0.18,0.00,0.00,0.19,0.00,2
-0.07,0.06,-1.25,3.23,0.18,-0.18,0.00,2.67,0.24,0.00,2
-0.07,0.06,-1.25,3.23,0.18,-0.18,0.00,2.78,0.25,0.00,2
-0.07,0.06,-1.25,3.23,0.18,-0.18,0.00,0.00,0.18,0.00,2
-0.07,0.06,-1.25,3.23,0.18,-0.18,0.00,0.00,0.19,0.00,2
-0.07,0.06,-1.25,3.23,0.18,-0.18,0.00,0.00,0.19,0.00,2
-0.07,0.06,-1.25,3.23,0.18,-0.18,0.00,0.00,0.19,0.00,2
-0.07,0.06,-1.25,3.23,0.18,-0.18,0.00,0.00,0.16,0.00,2
-0.07,0.06,-1.25,3.23,0.18,-0.18,0.00,2.67,0.24,0.00,2
-0.07,0.06,-1.25,3.23,0.18,-0.18,0.00,3.39,0.23,0.00,2
-0.07,0.06,-1.25,3.23,0.18,-0.18,0.00,0.00,0.17,0.00,2
-0.07,0.06,-1.25,3.23,0.18,-0.18,0.00,0.00,0.17,0.00,2
-0.07,0.06,-1.25,3.23,0.18,-0.18,0.00,0.00,0.17,0.00,2
-0.07,0.06,-1.25,3.23,0.18,-0.18,0.00,0.00,0.14,0.00,2
-0.07,0.06,-1.25,3.23,0.18,-0.18,0.00,0.00,0.15,0.00,2
-0.07,0.06,-1.25,3.23,0.18,-0.18,0.00,0.00,0.16,0.00,2
-0.07,0.06,-1.25,3.23,0.18,-0.18,0.00,0.00,0.16,0.00,2
-0.07,0.06,-1.25,3.23,0.18,-0.18,0.00,0.00,0.17,0.00,2
-0.07,0.06,-1.25,3.23,0.18,-0.18,0.00,3.21,0.23,0.00,2
-0.07,0.06,-1.25,3.23,0.18,-0.18,0.00,2.72,0.22,0.00,2
-0.07,0.06,-1.25,3.23,0.18,-0.18,0.00,2.74,0.22,0.00,2
-0.07,0.06,-1.25,3.23,0.18,-0.18,0.00,0.00,0.16,0.00,2
-0.07,0.06,-1.25,3.23,0.18,-0.18,0.00,0.72,0.20,0.00,2
-0.07,0.06,-1.25,3.23,0.18,-0.18,0.00,0.00,0.17,0.00,2
-0.07,0.06,-1.25,3.23,0.18,-0.18,0.00,0.00,0.18,0.00,2
-0.07,0.06,-1.25,3.23,0.18,-0.18,0.00,0.00,0.17,0.00,2
-0.07,0.06,-1.25,3.23,0.18,-0.18,0.00,0.00,0.17,0.00,2
-0.07,0.06,-1.25,3.23,0.18,-0.18,0.00,2.04,0.22,0.00,2
-0.07,0.06,-1.25,3.23,0.18,-0.18,0.00,2.66,0.22,0.00,2
-0.07,0.06,-1.25,3.23,0.18,-0.18,0.00,2.74,0.23,0.00,2
-0.07,0.06,-1.25,3.23,0.18,-0.18,0.00,2.75,0.22,0.00,2
-0.07,0.06,-1.25,3.23,0.18,-0.18,0.00,0.00,0.17,0.00,2
-0.07,0.06,-1.25,3.23,0.18,-0.18,0.00,2.70,0.22,0.00,2
-0.07,0.06,-1.25,3.23,0.18,-0.18,0.00,2.72,0.20,0.00,2
-0.07,0.06,-1.25,3.23,0.18,-0.18,0.00,2.72,0.21,0.00,2
-0.07,0.06,-1.25,3.23,0.18,-0.18,0.00,0.00,0.16,0.00,2
-0.07,0.06,-1.25,3.23,0.18,-0.18,0.00,0.00,0.17,0.00,2
-0.07,0.06,-1.25,3.23,0.18,-0.18,0.00,0.00,0.16,0.00,2
-0.07,0.06,-1.25,3.23,0.18,-0.18,0.00,3.05,0.24,0.00,2
-0.07,0.06,-1.25,3.23,0.18,-0.18,0.00,2.78,0.22,0.00,2
-0.07,0.06,-1.25,3.23,0.18,-0.18,0.00,3.38,0.23,0.00,2
-0.07,0.06,-1.25,3.23,0.18,-0.18,0.00,0.00,0.20,0.00,2
-0.07,0.06,-1.25,3.23,0.18,-0.18,0.00,0.00,0.19,0.00,2
-0.07,0.06,-1.25,3.23,0.18,-0.18,0.00,0.00,0.19,0.00,2
-0.07,0.06,-1.25,3.23,0.18,-0.18,0.00,0.00,0.19,0.00,2
-0.07,0.06,-1.25,3.23,0.18,-0.18,0.00,0.00,0.20,0.00,2
-0.07,0.06,-1.25,3.23,0.18,-0.18,0.00,2.67,0.22,0.00,2
-0.07,0.06,-1.25,3.23,0.18,-0.18,0.00,3.25,0.25,0.00,2
-0.07,0.06,-1.25,3.23,0.18,-0.18,0.00,2.67,0.24,0.00,2
-0.07,0.06,-1.25,3.23,0.18,-0.18,0.00,2.71,0.23,0.00,2
-0.07,0.06,-1.25,3.23,0.18,-0.18,0.00,0.00,0.19,0.00,2
-0.07,0.06,-1.25,3.23,0.18,-0.18,0.00,0.00,0.19,0.00,2
-0.07,0.06,-1.25,3.23,0.18,-0.18,0.00,0.00,0.18,0.00,2
-0.07,0.06,-1.25,3.23,0.18,-0.18,0.00,0.00,0.18,0.00,2
-0.07,0.06,-1.25,3.23,0.18,-0.18,0.00,2.61,0.25,0.00,2
-0.07,0.06,-1.25,3.23,0.18,-0.18,0.00,0.00,0.19,0.00,2
-0.07,0.06,-1.25,3.23,0.18,-0.18,0.00,2.37,0.25,0.00,2
-0.07,0.06,-1.25,3.23,0.18,-0.18,0.00,0.00,0.20,0.00,2
-0.07,0.06,-1.25,3.23,0.18,-0.18,0.00,3.42,0.26,0.00,2
-0.07,0.06,-1.25,3.23,0.18,-0.18,0.00,3.21,0.26,0.00,2
-0.07,0.06,-1.25,3.23,0.18,-0.18,0.00,2.72,0.25,0.00,2
-0.07,0.06,-1.25,3.23,0.18,-0.18,0.00,2.71,0.24,0.00,2
-0.07,0.06,-1.25,3.23,0.18,-0.18,0.00,2.74,0.25,0.00,2
-0.07,0.06,-1.25,3.23,0.18,-0.18,0.00,2.88,0.18,0.00,2
-0.07,0.06,-1.25,3.23,0.18,-0.18,0.00,2.70,0.28,0.00,2
-0.07,0.06,-1.25,3.23,0.18,-0.18,0.00,2.67,0.27,0.00,2
-0.07,0.06,-1.25,3.23,0.18,-0.18,0.00,2.73,0.27,0.00,2
-0.07,0.06,-1.25,3.23,0.18,-0.18,0.00,3.48,0.26,0.00,2
-0.07,0.06,-1.25,3.23,0.18,-0.18,0.00,2.88,0.26,0.00,2
-0.07,0.06,-1.25,3.23,0.18,-0.18,0.00,2.83,0.27,0.00,2
-0.07,0.06,-1.25,3.23,0.18,-0.18,0.00,2.89,0.27,0.00,2
-0.07,0.06,-1.25,3.23,0.18,-0.18,0.00,3.22,0.27,0.00,2
-0.07,0.06,-1.25,3.23,0.18,-0.18,0.00,3.52,0.28,0.00,2
-0.07,0.06,-1.25,3.23,0.18,-0.18,0.00,2.80,0.27,0.00,2
-0.07,0.06,-1.25,3.23,0.18,-0.18,0.00,2.80,0.28,0.00,2
-0.07,0.06,-1.25,3.23,0.18,-0.18,0.00,2.80,0.25,0.00,2
-0.07,0.06,-1.25,3.23,0.18,-0.18,0.00,2.80,0.27,0.00,2
-0.07,0.06,-1.25,3.23,0.18,-0.18,0.00,2.77,0.26,0.00,2
-0.07,0.06,-1.25,3.23,0.18,-0.18,0.00,3.43,0.27,0.00,2
-0.07,0.06,-1.25,3.23,0.18,-0.18,0.00,2.79,0.26,0.00,2
-0.07,0.06,-1.25,3.23,0.18,-0.18,0.00,2.79,0.27,0.00,2
-0.07,0.06,-1.25,3.23,0.18,-0.18,0.00,2.83,0.25,0.00,2
-0.07,0.06,-1.25,3.23,0.18,-0.18,0.00,2.81,0.25,0.00,2
-0.07,0.06,-1.25,3.23,0.18,-0.18,0.00,3.34,0.26,0.00,2
-0.07,0.06,-1.25,3.23,0.18,-0.18,0.00,2.79,0.26,0.00,2
-0.07,0.06,-1.25,3.23,0.18,-0.18,0.00,2.72,0.26,0.00,2
-0.07,0.06,-1.25,3.23,0.18,-0.18,0.00,2.83,0.05,0.00,2
-0.07,0.06,-1.25,3.23,0.18,-0.18,0.00,2.89,0.09,0.00,2
-0.07,0.06,-1.25,3.23,0.18,-0.18,0.00,2.81,0.20,0.00,2
-0.07,0.06,-1.25,3.23,0.18,-0.18,0.00,3.58,0.26,0.00,2
-0.07,0.06,-1.25,3.23,0.18,-0.18,0.00,2.74,0.24,0.00,2
-0.07,0.06,-1.25,3.23,0.18,-0.18,0.00,0.00,0.18,0.00,2
-0.07,0.06,-1.25,3.23,0.18,-0.18,0.00,0.00,0.14,0.00,2
-0.07,0.06,-1.25,3.23,0.18,-0.18,0.00,2.65,0.25,0.00,2
-0.07,0.06,-1.25,3.23,0.18,-0.18,0.00,0.00,0.19,0.00,2
-0.07,0.06,-1.25,3.23,0.18,-0.18,0.00,0.00,0.22,0.00,2
-0.07,0.06,-1.25,3.23,0.18,-0.18,0.00,0.00,0.17,0.00,2
-0.07,0.06,-1.25,3.23,0.18,-0.18,0.00,0.00,0.16,0.00,2
-0.07,0.06,-1.25,3.23,0.18,-0.18,0.00,0.00,0.17,0.00,2
-0.07,0.06,-1.25,3.23,0.18,-0.18,0.00,0.00,0.16,0.00,2
-0.07,0.06,-1.25,3.23,0.18,-0.18,0.00,0.00,0.13,0.00,2
-0.07,0.06,-1.25,3.23,0.18,-0.18,0.00,0.00,0.12,0.00,2
-0.07,0.06,-1.25,3.23,0.18,-0.18,0.00,0.00,0.12,0.00,2
-0.07,0.06,-1.25,3.23,0.18,-0.18,0.00,0.00,0.11,0.00,2
-0.07,0.06,-1.25,3.23,0.18,-0.18,0.00,0.00,0.11,0.00,2
-0.07,0.06,-1.25,3.23,0.18,-0.18,0.00,0.00,0.11,0.00,2
-0.07,0.06,-1.25,3.23,0.18,-0.18,0.00,0.00,0.11,0.00,2
-0.07,0.06,-1.25,3.23,0.18,-0.18,0.00,0.00,0.12,0.00,2
-0.07,0.06,-1.25,3.23,0.18,-0.18,0.00,0.00,0.12,0.00,2
-0.07,0.06,-1.25,3.23,0.18,-0.18,0.00,0.00,0.12,0.00,2
-0.07,0.06,-1.25,3.23,0.18,-0.18,0.00,0.00,0.13,0.00,2
-0.07,0.06,-1.25,3.23,0.18,-0.18,0.00,0.00,0.12,0.00,2
-0.07,0.06,-1.25,3.23,0.18,-0.18,0.00,0.00,0.12,0.00,2
-0.07,0.06,-1.25,3.23,0.18,-0.18,0.00,0.00,0.12,0.00,2
-0.07,0.06,-1.25,3.23,0.18,-0.18,0.00,0.00,0.12,0.00,2
-0.07,0.06,-1.25,3.23,0.18,-0.18,0.00,0.00,0.11,0.00,2
-0.07,0.06,-1.25,3.23,0.18,-0.18,0.00,0.00,0.12,0.00,2
-0.07,0.06,-1.25,3.23,0.18,-0.18,0.00,0.00,0.12,0.00,2
-0.07,0.06,-1.25,3.23,0.18,-0.18,0.00,0.00,0.10,0.00,2
-0.07,0.06,-1.25,3.23,0.18,-0.18,0.00,0.00,0.11,0.00,2
-0.07,0.06,-1.25,3.23,0.18,-0.18,0.00,0.00,0.11,0.00,2
-0.07,0.06,-1.25,3.23,0.18,-0.18,0.00,0.00,0.08,0.00,2
-0.07,0.06,-1.25,3.23,0.18,-0.18,0.00,0.00,0.09,0.00,2
-0.07,0.06,-1.25,3.23,0.18,-0.18,0.00,0.00,0.10,0.00,2
-0.07,0.06,-1.25,3.23,0.18,-0.18,0.00,0.00,0.08,0.00,2
-0.07,0.06,-1.25,3.23,0.18,-0.18,0.00,0.00,0.08,0.00,2
-0.07,0.06,-1.25,3.23,0.18,-0.18,0.00,0.00,0.08,0.00,2
-0.07,0.06,-1.25,3.23,0.18,-0.18,0.00,0.00,0.07,0.00,2
-0.07,0.06,-1.25,3.23,0.18,-0.18,0.00,0.00,0.08,0.00,2
-0.07,0.06,-1.25,3.23,0.18,-0.18,0.00,0.00,0.09,0.00,2
-0.07,0.06,-1.25,3.23,0.18,-0.18,0.00,0.00,0.07,0.00,2
-0.07,0.06,-1.25,3.23,0.18,-0.18,0.00,0.00,0.09,0.00,2
-0.07,0.06,-1.25,3.23,0.18,-0.18,0.00,0.00,0.08,0.00,2
-0.07,0.06,-1.25,3.23,0.18,-0.18,0.00,0.00,0.08,0.00,2
-0.07,0.06,-1.25,3.23,0.18,-0.18,0.00,0.00,0.09,0.00,2
-0.07,0.06,-1.25,3.23,0.18,-0.18,0.00,0.00,0.11,0.00,2
-0.07,0.06,-1.25,3.23,0.18,-0.18,0.00,0.00,0.10,0.00,2
-0.07,0.06,-1.25,3.23,0.18,-0.18,0.00,0.00,0.09,0.00,2
-0.07,0.06,-1.25,3.23,0.18,-0.18,0.00,0.00,0.11,0.00,2
-0.07,0.06,-1.25,3.23,0.18,-0.18,0.00,0.00,0.11,0.00,2
-0.07,0.06,-1.25,3.23,0.18,-0.18,0.00,0.00,0.11,0.00,2
-0.07,0.06,-1.25,3.23,0.18,-0.18,0.00,0.00,0.11,0.00,2
-0.07,0.06,-1.25,3.23,0.18,-0.18,0.00,0.00,0.11,0.00,2
-0.07,0.06,-1.25,3.23,0.18,-0.18,0.00,0.00,0.10,0.00,2
-0.07,0.06,-1.25,3.23,0.18,-0.18,0.00,0.00,0.13,0.00,2
-0.07,0.06,-1.25,3.23,0.18,-0.18,0.00,0.00,0.13,0.00,2
-0.07,0.06,-1.25,3.23,0.18,-0.18,0.00,0.00,0.12,0.00,2
-0.07,0.06,-1.25,3.23,0.18,-0.18,0.00,0.00,0.12,0.00,2
-0.07,0.06,-1.25,3.23,0.18,-0.18,0.00,0.00,0.14,0.00,2
-0.07,0.06,-1.25,3.23,0.18,-0.18,0.00,0.00,0.14,0.00,2
-0.07,0.06,-1.25,3.23,0.18,-0.18,0.00,0.00,0.13,0.00,2
-0.07,0.06,-1.25,3.23,0.18,-0.18,0.00,0.00,0.14,0.00,2
-0.07,0.06,-1.25,3.23,0.18,-0.18,0.00,0.00,0.12,0.00,2
-0.07,0.06,-1.25,3.23,0.18,-0.18,0.00,0.00,0.12,0.00,2
-0.07,0.06,-1.25,3.23,0.18,-0.18,0.00,0.00,0.14,0.00,2
-0.07,0.06,-1.25,3.23,0.18,-0.18,0.00,0.00,0.14,0.00,2
-0.07,0.06,-1.25,3.23,0.18,-0.18,0.00,0.00,0.12,0.00,2
-0.07,0.06,-1.25,3.23,0.18,-0.18,0.00,0.00,0.13,0.00,2
-0.07,0.06,-1.25,3.23,0.18,-0.18,0.00,0.00,0.00,0.00,2
-0.07,0.06,-1.25,3.23,0.18,-0.18,0.00,0.00,0.00,0.00,2
-0.07,0.06,-1.25,3.23,0.18,-0.18,0.00,0.00,0.00,0.00,2
-0.07,0.06,-1.25,3.23,0.18,-0.18,0.00,0.00,0.00,0.00,2
-0.07,0.06,-1.25,3.23,0.18,-0.18,0.00,0.00,0.00,0.00,2
-0.07,0.06,-1.25,3.23,0.18,-0.18,0.00,2.68,0.00,0.00,2
-0.07,0.06,-1.25,3.23,0.18,-0.18,0.00,0.00,0.00,0.00,2
-0.07,0.06,-1.25,3.23,0.18,-0.18,0.00,0.00,0.00,0.00,2
-0.07,0.06,-1.25,3.23,0.18,-0.18,0.00,3.27,0.00,0.00,2
-0.07,0.06,-1.25,3.23,0.18,-0.18,0.00,0.20,0.00,0.00,2
-0.07,0.06,-1.25,3.23,0.18,-0.18,0.00,0.59,0.00,0.00,2
-0.07,0.06,-1.25,3.23,0.18,-0.18,0.00,0.00,0.00,0.00,2
-0.07,0.06,-1.25,3.23,0.18,-0.18,0.00,1.82,0.00,0.00,2
-0.07,0.06,-1.25,3.23,0.18,-0.18,0.00,2.28,0.00,0.00,2
-0.07,0.06,-1.25,3.23,0.18,-0.18,0.00,2.66,0.00,0.00,2
-0.07,0.06,-1.25,3.23,0.18,-0.18,0.00,0.00,0.00,0.00,2
-0.07,0.06,-1.25,3.23,0.18,-0.18,0.00,0.00,0.00,0.00,2
-0.07,0.06,-1.25,3.23,0.18,-0.18,0.00,0.00,0.00,0.00,2
-0.07,0.06,-1.25,3.23,0.18,-0.18,0.00,0.00,0.00,0.00,2
-0.07,0.06,-1.25,3.23,0.18,-0.18,0.00,0.00,0.00,0.00,2
-0.07,0.06,-1.25,3.23,0.18,-0.18,0.00,0.00,0.00,0.00,2
-0.07,0.06,-1.25,3.23,0.18,-0.18,0.00,0.00,0.00,0.00,2
-0.07,0.06,-1.25,3.23,0.18,-0.18,0.00,0.00,0.00,0.00,2
-0.07,0.06,-1.25,3.23,0.18,-0.18,0.00,0.00,0.00,0.00,2
-0.07,0.06,-1.25,3.23,0.18,-0.18,0.00,0.00,0.00,0.00,2
-0.07,0.06,-1.25,3.23,0.18,-0.18,0.00,0.00,0.00,0.00,2
-0.07,0.06,-1.25,3.23,0.18,-0.18,0.00,0.00,0.00,0.00,2
-0.07,0.06,-1.25,3.23,0.18,-0.18,0.00,0.00,0.00,0.00,2
-0.07,0.06,-1.25,3.23,0.18,-0.18,0.00,0.00,0.00,0.00,2
-0.07,0.06,-1.25,3.23,0.18,-0.18,0.00,0.00,0.00,0.00,2
-0.07,0.06,-1.25,3.23,0.18,-0.18,0.00,0.00,0.00,0.00,2
-0.07,0.06,-1.25,3.23,0.18,-0.18,0.00,0.00,0.00,0.00,2
-0.07,0.06,-1.25,3.23,0.18,-0.18,0.00,0.00,0.00,0.00,2
-0.07,0.06,-1.25,3.23,0.18,-0.18,0.00,0.00,0.00,0.00,2
-0.07,0.06,-1.25,3.23,0.18,-0.18,0.00,0.00,0.00,0.00,2
-0.07,0.06,-1.25,3.23,0.18,-0.18,0.00,0.00,0.00,0.00,2
-0.07,0.06,-1.25,3.23,0.18,-0.18,0.00,0.00,0.00,0.00,2
-0.07,0.06,-1.25,3.23,0.18,-0.18,0.00,2.75,0.22,0.00,2
-0.07,0.06,-1.25,3.23,0.18,-0.18,0.00,2.58,0.23,0.00,2
-0.07,0.06,-1.25,3.23,0.18,-0.18,0.00,2.63,0.24,0.00,2
-0.07,0.06,-1.25,3.23,0.18,-0.18,0.00,2.61,0.24,0.00,2
-0.07,0.06,-1.25,3.23,0.18,-0.18,0.00,3.23,0.25,0.00,2
-0.07,0.06,-1.25,3.23,0.18,-0.18,0.00,2.73,0.25,0.00,2
-0.07,0.06,-1.25,3.23,0.18,-0.18,0.00,2.71,0.23,0.00,2
-0.07,0.06,-1.25,3.23,0.18,-0.18,0.00,2.72,0.26,0.00,2
-0.07,0.06,-1.25,3.23,0.18,-0.18,0.00,2.70,0.24,0.00,2
-0.07,0.06,-1.25,3.23,0.18,-0.18,0.00,3.29,0.17,0.00,2
-0.07,0.06,-1.25,3.23,0.18,-0.18,0.00,0.00,0.13,0.00,2
-0.07,0.06,-1.25,3.23,0.18,-0.18,0.00,0.00,0.17,0.00,2
-0.07,0.06,-1.25,3.23,0.18,-0.18,0.00,0.00,0.18,0.00,2
-0.07,0.06,-1.25,3.23,0.18,-0.18,0.00,0.00,0.18,0.00,2
-0.07,0.06,-1.25,3.23,0.18,-0.18,0.00,0.00,0.14,0.00,2
-0.07,0.06,-1.25,3.23,0.18,-0.18,0.00,0.00,0.16,0.00,2
-0.07,0.06,-1.25,3.23,0.18,-0.18,0.00,0.00,0.14,0.00,2
-0.07,0.06,-1.25,3.23,0.18,-0.18,0.00,0.00,0.15,0.00,2
-0.07,0.06,-1.25,3.23,0.18,-0.18,0.00,0.00,0.16,0.00,2
-0.07,0.06,-1.25,3.23,0.18,-0.18,0.00,0.00,0.15,0.00,2
-0.07,0.06,-1.25,3.23,0.18,-0.18,0.00,0.00,0.12,0.00,2
-0.07,0.06,-1.25,3.23,0.18,-0.18,0.00,0.00,0.12,0.00,2
-0.07,0.06,-1.25,3.23,0.18,-0.18,0.00,0.00,0.10,0.00,2
-0.07,0.06,-1.25,3.23,0.18,-0.18,0.00,0.00,0.19,0.00,2
-0.07,0.06,-1.25,3.23,0.18,-0.18,0.00,0.00,0.16,0.00,2
-0.07,0.06,-1.25,3.23,0.18,-0.18,0.00,0.00,0.12,0.00,2
-0.07,0.06,-1.25,3.23,0.18,-0.18,0.00,0.00,0.17,0.00,2
-0.07,0.06,-1.25,3.23,0.18,-0.18,0.00,0.00,0.18,0.00,2
-0.07,0.06,-1.25,3.23,0.18,-0.18,0.00,0.00,0.17,0.00,2
-0.07,0.06,-1.25,3.23,0.18,-0.18,0.00,0.00,0.19,0.00,2
-0.07,0.06,-1.25,3.23,0.18,-0.18,0.00,0.00,0.20,0.00,2
-0.07,0.06,-1.25,3.23,0.18,-0.18,0.00,0.00,0.18,0.00,2
-0.07,0.06,-1.25,3.23,0.18,-0.18,0.00,0.00,0.18,0.00,2
-0.07,0.06,-1.25,3.23,0.18,-0.18,0.00,0.00,0.18,0.00,2
-0.07,0.06,-1.25,3.23,0.18,-0.18,0.00,0.00,0.17,0.00,2
-0.07,0.06,-1.25,3.23,0.18,-0.18,0.00,0.00,0.15,0.00,2
-0.07,0.06,-1.25,3.23,0.18,-0.18,0.00,0.00,0.17,0.00,2
-0.07,0.06,-1.25,3.23,0.18,-0.18,0.00,0.00,0.18,0.00,2
-0.07,0.06,-1.25,3.23,0.18,-0.18,0.00,0.00,0.18,0.00,2
-0.07,0.06,-1.25,3.23,0.18,-0.18,0.00,0.00,0.18,0.00,2
-0.07,0.06,-1.25,3.23,0.18,-0.18,0.00,0.00,0.18,0.00,2
-0.07,0.06,-1.25,3.23,0.18,-0.18,0.00,0.00,0.17,0.00,2
-0.07,0.06,-1.25,3.23,0.18,-0.18,0.00,0.00,0.17,0.00,2
-0.07,0.06,-1.25,3.23,0.18,-0.18,0.00,0.00,0.17,0.00,2
-0.07,0.06,-1.25,3.23,0.18,-0.18,0.00,0.00,0.16,0.00,2
-0.07,0.06,-1.25,3.23,0.18,-0.18,0.00,0.00,0.17,0.00,2
-0.07,0.06,-1.25,3.23,0.18,-0.18,0.00,0.00,0.16,0.00,2
-0.07,0.06,-1.25,3.23,0.18,-0.18,0.00,0.00,0.16,0.00,2
-0.07,0.06,-1.25,3.23,0.18,-0.18,0.00,0.00,0.14,0.00,2
-0.07,0.06,-1.25,3.23,0.18,-0.18,0.00,0.00,0.15,0.00,2
-0.07,0.06,-1.25,3.23,0.18,-0.18,0.00,0.00,0.14,0.00,2
-0.07,0.06,-1.25,3.23,0.18,-0.18,0.00,0.00,0.13,0.00,2
-0.07,0.06,-1.25,3.23,0.18,-0.18,0.00,0.00,0.06,0.00,2
-0.07,0.06,-1.25,3.23,0.18,-0.18,0.00,0.00,0.07,0.00,2
-0.07,0.06,-1.25,3.23,0.18,-0.18,0.00,0.00,0.00,0.00,2
-0.07,0.06,-1.25,3.23,0.18,-0.18,0.00,0.00,0.00,0.00,2
-0.07,0.06,-1.25,3.23,0.18,-0.18,0.00,0.00,0.00,0.00,2
-0.07,0.06,-1.25,3.23,0.18,-0.18,0.00,0.00,0.00,0.00,2
-0.07,0.06,-1.25,3.23,0.18,-0.18,0.00,0.00,0.00,0.00,2
-0.07,0.06,-1.25,3.23,0.18,-0.18,0.00,0.00,0.00,0.00,2
-0.07,0.06,-1.25,3.23,0.18,-0.18,0.00,2.62,0.05,0.00,2
-0.07,0.06,-1.25,3.23,0.18,-0.18,0.00,2.62,0.00,0.00,2
-0.07,0.06,-1.25,3.23,0.18,-0.18,0.00,0.00,0.00,0.00,2
-0.07,0.06,-1.25,3.23,0.18,-0.18,0.00,0.00,0.00,0.00,2
-0.07,0.06,-1.25,3.23,0.18,-0.18,0.00,0.00,0.00,0.00,2
-0.07,0.06,-1.25,3.23,0.18,-0.18,0.00,0.00,0.00,0.00,2
-0.07,0.06,-1.25,3.23,0.18,-0.18,0.00,0.00,0.00,0.00,2
-0.07,0.06,-1.25,3.23,0.18,-0.18,0.00,0.00,0.00,0.00,2
-0.07,0.06,-1.25,3.23,0.18,-0.18,0.00,0.00,0.00,0.00,2
-0.07,0.06,-1.25,3.23,0.18,-0.18,0.00,0.00,0.00,0.00,2
-0.07,0.06,-1.25,3.23,0.18,-0.18,0.00,0.00,0.00,0.00,2
-0.07,0.06,-1.25,3.23,0.18,-0.18,0.00,0.00,0.00,0.00,2
-0.07,0.06,-1.25,3.23,0.18,-0.18,0.00,0.00,0.00,0.00,2
-0.07,0.06,-1.25,3.23,0.18,-0.18,0.00,0.00,0.00,0.00,2
-0.07,0.06,-1.25,3.23,0.18,-0.18,0.00,0.00,0.00,0.00,2
-0.07,0.06,-1.25,3.23,0.18,-0.18,0.00,0.00,0.00,0.00,2
-0.07,0.06,-1.25,3.23,0.18,-0.18,0.00,0.00,0.00,0.00,2
-0.07,0.06,-1.25,3.23,0.18,-0.18,0.00,0.00,0.05,0.00,2
-0.07,0.06,-1.25,3.23,0.18,-0.18,0.00,0.00,0.07,0.00,2
-0.07,0.06,-1.25,3.23,0.18,-0.18,0.00,0.00,0.11,0.00,2
-0.07,0.06,-1.25,3.23,0.18,-0.18,0.00,0.00,0.12,0.00,2
-0.07,0.06,-1.25,3.23,0.18,-0.18,0.00,0.00,0.15,0.00,2
-0.07,0.06,-1.25,3.23,0.18,-0.18,0.00,0.00,0.11,0.00,2
-0.07,0.06,-1.25,3.23,0.18,-0.18,0.00,0.00,0.12,0.00,2
-0.07,0.06,-1.25,3.23,0.18,-0.18,0.00,0.00,0.11,0.00,2
-0.07,0.06,-1.25,3.23,0.18,-0.18,0.00,0.00,0.11,0.00,2
-0.07,0.06,-1.25,3.23,0.18,-0.18,0.00,0.00,0.12,0.00,2
-0.07,0.06,-1.25,3.23,0.18,-0.18,0.00,0.00,0.11,0.00,2
-0.07,0.06,-1.25,3.23,0.18,-0.18,0.00,0.00,0.11,0.00,2
-0.07,0.06,-1.25,3.23,0.18,-0.18,0.00,0.00,0.10,0.00,2
-0.07,0.06,-1.25,3.23,0.18,-0.18,0.00,0.00,0.11,0.00,2
-0.07,0.06,-1.25,3.23,0.18,-0.18,0.00,0.00,0.11,0.00,2
-0.07,0.06,-1.25,3.23,0.18,-0.18,0.00,0.00,0.11,0.00,2
-0.07,0.06,-1.25,3.23,0.18,-0.18,0.00,0.00,0.12,0.00,2
-0.07,0.06,-1.25,3.23,0.18,-0.18,0.00,0.00,0.09,0.00,2
-0.07,0.06,-1.25,3.23,0.18,-0.18,0.00,0.00,0.11,0.00,2
-0.07,0.06,-1.25,3.23,0.18,-0.18,0.00,0.00,0.10,0.00,2
-0.07,0.06,-1.25,3.23,0.18,-0.18,0.00,0.00,0.09,0.00,2
-0.07,0.06,-1.25,3.23,0.18,-0.18,0.00,0.00,0.10,0.00,2
-0.07,0.06,-1.25,3.23,0.18,-0.18,0.00,0.00,0.11,0.00,2
-0.07,0.06,-1.25,3.23,0.18,-0.18,0.00,0.00,0.14,0.00,2
-0.07,0.06,-1.25,3.23,0.18,-0.18,0.00,0.00,0.21,0.00,2
-0.07,0.06,-1.25,3.23,0.18,-0.18,0.00,0.00,0.17,0.00,2
-0.07,0.06,-1.25,3.23,0.18,-0.18,0.00,0.00,0.17,0.00,2
-0.07,0.06,-1.25,3.23,0.18,-0.18,0.00,0.00,0.17,0.00,2
-0.07,0.06,-1.25,3.23,0.18,-0.18,0.00,0.00,0.15,0.00,2
-0.07,0.06,-1.25,3.23,0.18,-0.18,0.00,0.00,0.15,0.00,2
-0.07,0.06,-1.25,3.23,0.18,-0.18,0.00,0.00,0.14,0.00,2
-0.07,0.06,-1.25,3.23,0.18,-0.18,0.00,0.00,0.12,0.00,2
-0.07,0.06,-1.25,3.23,0.18,-0.18,0.00,0.00,0.13,0.00,2
-0.07,0.06,-1.25,3.23,0.18,-0.18,0.00,0.00,0.13,0.00,2
-0.07,0.06,-1.25,3.23,0.18,-0.18,0.00,0.00,0.13,0.00,2
-0.07,0.06,-1.25,3.23,0.18,-0.18,0.00,0.00,0.11,0.00,2
-0.07,0.06,-1.25,3.23,0.18,-0.18,0.00,0.00,0.11,0.00,2
-0.07,0.06,-1.25,3.23,0.18,-0.18,0.00,0.00,0.09,0.00,2
-0.07,0.06,-1.25,3.23,0.18,-0.18,0.00,0.00,0.20,0.00,2
-0.07,0.06,-1.25,3.23,0.18,-0.18,0.00,0.00,0.20,0.00,2
-0.07,0.06,-1.25,3.23,0.18,-0.18,0.00,0.00,0.10,0.00,2
-0.07,0.06,-1.25,3.23,0.18,-0.18,0.00,0.00,0.07,0.00,2
-0.07,0.06,-1.25,3.23,0.18,-0.18,0.00,0.00,0.00,0.00,2
-0.07,0.06,-1.25,3.23,0.18,-0.18,0.00,0.00,0.00,0.00,2
-0.07,0.06,-1.25,3.23,0.18,-0.18,0.00,0.00,0.00,0.00,2
-0.07,0.06,-1.25,3.23,0.18,-0.18,0.00,0.00,0.00,0.00,2
-0.07,0.06,-1.25,3.23,0.18,-0.18,0.00,0.00,0.00,0.00,2
-0.07,0.06,-1.25,3.23,0.18,-0.18,0.00,0.00,0.00,0.00,2
-0.07,0.06,-1.25,3.23,0.18,-0.18,0.00,0.00,0.00,0.00,2
-0.07,0.06,-1.25,3.23,0.18,-0.18,0.00,0.00,0.00,0.00,2
-0.07,0.06,-1.25,3.23,0.18,-0.18,0.00,0.00,0.00,0.00,2
-0.07,0.06,-1.25,3.23,0.18,-0.18,0.00,0.00,0.00,0.00,2
-0.07,0.06,-1.25,3.23,0.18,-0.18,0.00,0.00,0.00,0.00,2
-0.07,0.06,-1.25,3.23,0.18,-0.18,0.00,0.00,0.00,0.00,2
-0.07,0.06,-1.25,3.23,0.18,-0.18,0.00,0.00,0.00,0.00,2
-0.07,0.06,-1.25,3.23,0.18,-0.18,0.00,2.52,0.00,0.00,2
-0.07,0.06,-1.25,3.23,0.18,-0.18,0.00,0.00,0.00,0.00,2
-0.07,0.06,-1.25,3.23,0.18,-0.18,0.00,0.00,0.00,0.00,2
-0.07,0.06,-1.25,3.23,0.18,-0.18,0.00,0.00,0.00,0.00,2
-0.07,0.06,-1.25,3.23,0.18,-0.18,0.00,0.00,0.00,0.00,2
-0.07,0.06,-1.25,3.23,0.18,-0.18,0.00,0.00,0.00,0.00,2
-0.07,0.06,-1.25,3.23,0.18,-0.18,0.00,0.00,0.00,0.00,2
-0.07,0.06,-1.25,3.23,0.18,-0.18,0.00,0.00,0.00,0.00,2
-0.07,0.06,-1.25,3.23,0.18,-0.18,0.00,0.00,0.00,0.00,2
-0.07,0.06,-1.25,3.23,0.18,-0.18,0.00,0.00,0.00,0.00,2
-0.07,0.06,-1.25,3.23,0.18,-0.18,0.00,0.00,0.00,0.00,2
-0.07,0.06,-1.25,3.23,0.18,-0.18,0.00,0.00,0.00,0.00,2
-0.07,0.06,-1.25,3.23,0.18,-0.18,0.00,0.00,0.00,0.00,2
-0.07,0.06,-1.25,3.23,0.18,-0.18,0.00,0.00,0.00,0.00,2
-0.07,0.06,-1.25,3.23,0.18,-0.18,0.00,0.00,0.00,0.00,2
-0.07,0.06,-1.25,3.23,0.18,-0.18,0.00,0.00,0.00,0.00,2
-0.07,0.06,-1.25,3.23,0.18,-0.18,0.00,0.00,0.00,0.00,2
-0.07,0.06,-1.25,3.23,0.18,-0.18,0.00,0.00,0.00,0.00,2
-0.07,0.06,-1.25,3.23,0.18,-0.18,0.00,0.00,0.00,0.00,2
-0.07,0.06,-1.25,3.23,0.18,-0.18,0.00,0.00,0.00,0.00,2
-0.07,0.06,-1.25,3.23,0.18,-0.18,0.00,0.00,0.00,0.00,2
-0.07,0.06,-1.25,3.23,0.18,-0.18,0.00,0.00,0.00,0.00,2
-0.07,0.06,-1.25,3.23,0.18,-0.18,0.00,0.00,0.00,0.00,2
-0.07,0.06,-1.25,3.23,0.18,-0.18,0.00,0.00,0.00,0.00,2
-0.07,0.06,-1.25,3.23,0.18,-0.18,0.00,0.00,0.00,0.00,2
-0.07,0.06,-1.25,3.23,0.18,-0.18,0.00,0.00,0.00,0.00,2
-0.07,0.06,-1.25,3.23,0.18,-0.18,0.00,0.00,0.00,0.00,2
-0.07,0.06,-1.25,3.23,0.18,-0.18,0.00,0.00,0.00,0.00,2
-0.07,0.06,-1.25,3.23,0.18,-0.18,0.00,0.00,0.00,0.00,2
-0.07,0.06,-1.25,3.23,0.18,-0.18,0.00,0.00,0.00,0.00,2
-0.07,0.06,-1.25,3.23,0.18,-0.18,0.00,0.00,0.00,0.00,2
-0.07,0.06,-1.25,3.23,0.18,-0.18,0.00,0.00,0.00,0.00,2
-0.07,0.06,-1.25,3.23,0.18,-0.18,0.00,0.00,0.12,0.00,2
-0.07,0.06,-1.25,3.23,0.18,-0.18,0.00,0.00,0.14,0.00,2
-0.07,0.06,-1.25,3.23,0.18,-0.18,0.00,0.00,0.13,0.00,2
-0.07,0.06,-1.25,3.23,0.18,-0.18,0.00,0.00,0.13,0.00,2
-0.07,0.06,-1.25,3.23,0.18,-0.18,0.00,0.00,0.14,0.00,2
-0.07,0.06,-1.25,3.23,0.18,-0.18,0.00,0.00,0.15,0.00,2
-0.07,0.06,-1.25,3.23,0.18,-0.18,0.00,0.00,0.14,0.00,2
-0.07,0.06,-1.25,3.23,0.18,-0.18,0.00,0.00,0.13,0.00,2
-0.07,0.06,-1.25,3.23,0.18,-0.18,0.00,0.00,0.11,0.00,2
-0.07,0.06,-1.25,3.23,0.18,-0.18,0.00,0.00,0.12,0.00,2
-0.07,0.06,-1.25,3.23,0.18,-0.18,0.00,0.00,0.14,0.00,2
-0.07,0.06,-1.25,3.23,0.18,-0.18,0.00,0.00,0.13,0.00,2
-0.07,0.06,-1.25,3.23,0.18,-0.18,0.00,0.00,0.14,0.00,2
-0.07,0.06,-1.25,3.23,0.18,-0.18,0.00,0.00,0.14,0.00,2
-0.07,0.06,-1.25,3.23,0.18,-0.18,0.00,0.00,0.14,0.00,2
-0.07,0.06,-1.25,3.23,0.18,-0.18,0.00,0.00,0.12,0.00,2
-0.07,0.06,-1.25,3.23,0.18,-0.18,0.00,0.00,0.13,0.00,2
-0.07,0.06,-1.25,3.23,0.18,-0.18,0.00,0.00,0.13,0.00,2
-0.07,0.06,-1.25,3.23,0.18,-0.18,0.00,0.00,0.00,0.00,2
-0.07,0.06,-1.25,3.23,0.18,-0.18,0.00,0.00,0.00,0.00,2
-0.07,0.06,-1.25,3.23,0.18,-0.18,0.00,0.00,0.00,0.00,2
-0.07,0.06,-1.25,3.23,0.18,-0.18,0.00,0.00,0.00,0.00,2
-0.07,0.06,-1.25,3.23,0.18,-0.18,0.00,0.00,0.00,0.00,2
-0.07,0.06,-1.25,3.23,0.18,-0.18,0.00,2.27,0.00,0.00,2
-0.07,0.06,-1.25,3.23,0.18,-0.18,0.00,0.00,0.00,0.00,2
-0.07,0.06,-1.25,3.23,0.18,-0.18,0.00,0.00,0.00,0.00,2
-0.07,0.06,-1.25,3.23,0.18,-0.18,0.00,0.00,0.00,0.00,2
-0.07,0.06,-1.25,3.23,0.18,-0.18,0.00,0.00,0.00,0.00,2
-0.07,0.06,-1.25,3.23,0.18,-0.18,0.00,0.00,0.00,0.00,2
-0.07,0.06,-1.25,3.23,0.18,-0.18,0.00,0.00,0.00,0.00,2
-0.07,0.06,-1.25,3.23,0.18,-0.18,0.00,0.00,0.00,0.00,2
-0.07,0.06,-1.25,3.23,0.18,-0.18,0.00,0.00,0.00,0.00,2
-0.07,0.06,-1.25,3.23,0.18,-0.18,0.00,0.00,0.00,0.00,2
-0.07,0.06,-1.25,3.23,0.18,-0.18,0.00,0.00,0.00,0.00,2
-0.07,0.06,-1.25,3.23,0.18,-0.18,0.00,0.00,0.00,0.00,2
-0.07,0.06,-1.25,3.23,0.18,-0.18,0.00,0.00,0.00,0.00,2
-0.07,0.06,-1.25,3.23,0.18,-0.18,0.00,0.00,0.00,0.00,2
-0.07,0.06,-1.25,3.23,0.18,-0.18,0.00,0.00,0.00,0.00,2
-0.07,0.06,-1.25,3.23,0.18,-0.18,0.00,0.00,0.00,0.00,2
-0.07,0.06,-1.25,3.23,0.18,-0.18,0.00,0.00,0.00,0.00,2
-0.07,0.06,-1.25,3.23,0.18,-0.18,0.00,0.00,0.00,0.00,2
-0.07,0.06,-1.25,3.23,0.18,-0.18,0.00,0.00,0.00,0.00,2
-0.07,0.06,-1.25,3.23,0.18,-0.18,0.00,0.00,0.00,0.00,2
-0.07,0.06,-1.25,3.23,0.18,-0.18,0.00,0.00,0.00,0.00,2
-0.07,0.06,-1.25,3.23,0.18,-0.18,0.00,0.00,0.00,0.00,2
-0.07,0.06,-1.25,3.23,0.18,-0.18,0.00,0.00,0.00,0.00,2
-0.07,0.06,-1.25,3.23,0.18,-0.18,0.00,0.00,0.00,0.00,2
-0.07,0.06,-1.25,3.23,0.18,-0.18,0.00,0.00,0.00,0.00,2
-0.07,0.06,-1.25,3.23,0.18,-0.18,0.00,0.00,0.00,0.00,2
-0.07,0.06,-1.25,3.23,0.18,-0.18,0.00,0.00,0.00,0.00,2
-0.07,0.06,-1.25,3.23,0.18,-0.18,0.00,0.00,0.00,0.00,2
-0.07,0.06,-1.25,3.23,0.18,-0.18,0.00,0.00,0.00,0.00,2
-0.07,0.06,-1.25,3.23,0.18,-0.18,0.00,0.00,0.00,0.00,2
-0.07,0.06,-1.25,3.23,0.18,-0.18,0.00,0.00,0.00,0.00,2
-0.07,0.06,-1.25,3.23,0.18,-0.18,0.00,0.00,0.00,0.00,2
-0.07,0.06,-1.25,3.23,0.18,-0.18,0.00,0.00,0.00,0.00,2
-0.07,0.06,-1.25,3.23,0.18,-0.18,0.00,0.00,0.00,0.00,2
-0.07,0.06,-1.25,3.23,0.18,-0.18,0.00,2.52,0.00,0.00,2
-0.07,0.06,-1.25,3.23,0.18,-0.18,0.00,0.00,0.00,0.00,2
-0.07,0.06,-1.25,3.23,0.18,-0.18,0.00,0.00,0.00,0.00,2
-0.07,0.06,-1.25,3.23,0.18,-0.18,0.00,0.00,0.00,0.00,2
-0.07,0.06,-1.25,3.23,0.18,-0.18,0.00,0.00,0.00,0.00,2
-0.07,0.06,-1.25,3.23,0.18,-0.18,0.00,0.00,0.00,0.00,2
-0.07,0.06,-1.25,3.23,0.18,-0.18,0.00,0.00,0.00,0.00,2
-0.07,0.06,-1.25,3.23,0.18,-0.18,0.00,0.00,0.00,0.00,2
-0.07,0.06,-1.25,3.23,0.18,-0.18,0.00,0.00,0.00,0.00,2
-0.07,0.06,-1.25,3.23,0.18,-0.18,0.00,0.00,0.00,0.00,2
-0.07,0.06,-1.25,3.23,0.18,-0.18,0.00,0.00,0.00,0.00,2
-0.07,0.06,-1.25,3.23,0.18,-0.18,0.00,0.00,0.00,0.00,2
-0.07,0.06,-1.25,3.23,0.18,-0.18,0.00,0.00,0.00,0.00,2
-0.07,0.06,-1.25,3.23,0.18,-0.18,0.00,0.00,0.00,0.00,2
-0.07,0.06,-1.25,3.23,0.18,-0.18,0.00,0.00,0.00,0.00,2
-0.07,0.06,-1.25,3.23,0.18,-0.18,0.00,0.00,0.00,0.00,2
-0.07,0.06,-1.25,3.23,0.18,-0.18,0.00,0.00,0.00,0.00,2
-0.07,0.06,-1.25,3.23,0.18,-0.18,0.00,0.00,0.00,0.00,2
-0.07,0.06,-1.25,3.23,0.18,-0.18,0.00,0.00,0.00,0.00,2
-0.07,0.06,-1.25,3.23,0.18,-0.18,0.00,0.00,0.00,0.00,2
-0.07,0.06,-1.25,3.23,0.18,-0.18,0.00,0.00,0.00,0.00,2
-0.07,0.06,-1.25,3.23,0.18,-0.18,0.00,0.00,0.00,0.00,2
-0.07,0.06,-1.25,3.23,0.18,-0.18,0.00,0.00,0.00,0.00,2
-0.07,0.06,-1.25,3.23,0.18,-0.18,0.00,0.00,0.00,0.00,2
-0.07,0.06,-1.25,3.23,0.18,-0.18,0.00,0.00,0.00,0.00,2
-0.07,0.06,-1.25,3.23,0.18,-0.18,0.00,0.00,0.00,0.00,2
-0.07,0.06,-1.25,3.23,0.18,-0.18,0.00,0.00,0.00,0.00,2
-0.07,0.06,-1.25,3.23,0.18,-0.18,0.00,0.00,0.00,0.00,2
-0.07,0.06,-1.25,3.23,0.18,-0.18,0.00,0.00,0.00,0.00,2
-0.07,0.06,-1.25,3.23,0.18,-0.18,0.00,0.00,0.00,0.00,2
-0.07,0.06,-1.25,3.23,0.18,-0.18,0.00,0.00,0.00,0.00,2
-0.07,0.06,-1.25,3.23,0.18,-0.18,0.00,0.00,0.00,0.00,2
-0.07,0.06,-1.25,3.23,0.18,-0.18,0.00,0.00,0.00,0.00,2
-0.07,0.06,-1.25,3.23,0.18,-0.18,0.00,0.00,0.00,0.00,2
-0.07,0.06,-1.25,3.23,0.18,-0.18,0.00,0.00,0.00,0.00,2
-0.07,0.06,-1.25,3.23,0.18,-0.18,0.00,0.00,0.00,0.00,2
-0.07,0.06,-1.25,3.23,0.18,-0.18,0.00,0.00,0.00,0.00,2
-0.07,0.06,-1.25,3.23,0.18,-0.18,0.00,0.00,0.00,0.00,2
-0.07,0.06,-1.25,3.23,0.18,-0.18,0.00,0.00,0.00,0.00,2
-0.07,0.06,-1.25,3.23,0.18,-0.18,0.00,0.00,0.00,0.00,2
-0.07,0.06,-1.25,3.23,0.18,-0.18,0.00,0.00,0.00,0.00,2
-0.07,0.06,-1.25,3.23,0.18,-0.18,0.00,0.00,0.00,0.00,2
-0.07,0.06,-1.25,3.23,0.18,-0.18,0.00,0.00,0.00,0.00,2
-0.07,0.06,-1.25,3.23,0.18,-0.18,0.00,0.00,0.00,0.00,2
-0.07,0.06,-1.25,3.23,0.18,-0.18,0.00,0.00,0.00,0.00,2
-0.07,0.06,-1.25,3.23,0.18,-0.18,0.00,0.00,0.00,0.00,2
-0.07,0.06,-1.25,3.23,0.18,-0.18,0.00,0.00,0.00,0.00,2
-0.07,0.06,-1.25,3.23,0.18,-0.18,0.00,0.00,0.00,0.00,2
-0.07,0.06,-1.25,3.23,0.18,-0.18,0.00,0.00,0.00,0.00,2
-0.07,0.06,-1.25,3.23,0.18,-0.18,0.00,0.00,0.00,0.00,2
-0.07,0.06,-1.25,3.23,0.18,-0.18,0.00,0.00,0.00,0.00,2
-0.07,0.06,-1.25,3.23,0.18,-0.18,0.00,0.00,0.00,0.00,2
-0.07,0.06,-1.25,3.23,0.18,-0.18,0.00,0.00,0.00,0.00,2
-0.07,0.06,-1.25,3.23,0.18,-0.18,0.00,0.00,0.00,0.00,2
-0.07,0.06,-1.25,3.23,0.18,-0.18,0.00,0.00,0.00,0.00,2
-0.07,0.06,-1.25,3.23,0.18,-0.18,0.00,0.00,0.00,0.00,2
-0.07,0.06,-1.25,3.23,0.18,-0.18,0.00,0.00,0.00,0.00,2
-0.07,0.06,-1.25,3.23,0.18,-0.18,0.00,0.00,0.00,0.00,2
-0.07,0.06,-1.25,3.23,0.18,-0.18,0.00,0.00,0.00,0.00,2
-0.07,0.06,-1.25,3.23,0.18,-0.18,0.00,0.00,0.00,0.00,2
-0.07,0.06,-1.25,3.23,0.18,-0.18,0.00,0.00,0.00,0.00,2
-0.07,0.06,-1.25,3.23,0.18,-0.18,0.00,0.00,0.00,0.00,2
-0.07,0.06,-1.25,3.23,0.18,-0.18,0.00,0.00,0.00,0.00,2
-0.07,0.06,-1.25,3.23,0.18,-0.18,0.00,0.00,0.00,0.00,2
-0.07,0.06,-1.25,3.23,0.18,-0.18,0.00,0.00,0.00,0.00,2
-0.07,0.06,-1.25,3.23,0.18,-0.18,0.00,0.00,0.00,0.00,2
-0.07,0.06,-1.25,3.23,0.18,-0.18,0.00,0.00,0.00,0.00,2
0.00,0.00,0.00,0.00,0.00,0.00,0.00,0.00,0.00,0.00,2
0.00,0.00,0.00,0.00,0.00,0.00,0.00,0.00,0.00,0.00,2
0.00,0.00,0.00,0.00,0.00,0.00,0.00,0.00,0.00,0.00,2
0.00,0.00,0.00,0.00,0.00,0.00,0.00,0.00,0.00,0.00,2
0.00,0.00,0.00,0.00,0.00,0.00,0.00,0.00,0.00,0.00,2
0.00,0.00,0.00,0.00,0.00,0.00,0.00,0.00,0.00,0.00,2
0.00,0.00,0.00,0.00,0.00,0.00,0.00,0.00,0.00,0.00,2
0.00,0.00,0.00,0.00,0.00,0.00,0.00,0.00,0.00,0.00,2
0.00,0.00,0.00,0.00,0.00,0.00,0.00,0.00,0.00,0.00,2
0.00,0.00,0.00,0.00,0.00,0.00,0.00,0.00,0.00,0.00,2
0.00,0.00,0.00,0.00,0.00,0.00,0.00,0.00,0.00,0.00,2
0.00,0.00,0.00,0.00,0.00,0.00,0.00,0.00,0.00,0.00,2
0.00,0.00,0.00,0.00,0.00,0.00,0.00,0.00,0.00,0.18,2
0.00,0.00,0.00,0.00,0.00,0.00,0.00,0.00,0.00,0.00,2
0.00,0.00,0.00,0.00,0.00,0.00,0.00,0.00,0.00,0.00,2
0.00,0.00,0.00,0.00,0.00,0.00,0.00,0.00,0.00,0.00,2
0.00,0.00,0.00,0.00,0.00,0.00,0.00,0.00,0.00,0.00,2
0.00,0.00,0.00,0.00,0.00,0.00,0.00,0.00,0.00,0.00,2
0.00,0.00,0.00,0.00,0.00,0.00,0.00,0.00,0.00,0.00,2
0.00,0.00,0.00,0.00,0.00,0.00,0.00,0.00,0.00,0.00,2
0.00,0.00,0.00,0.00,0.00,0.00,0.00,0.00,0.00,0.00,2
0.00,0.00,0.00,0.00,0.00,0.00,0.00,0.00,0.00,0.00,2
0.00,0.00,0.00,0.00,0.00,0.00,0.00,0.00,0.00,0.00,2
0.00,0.00,0.00,0.00,0.00,0.00,0.00,0.00,0.00,0.00,2
0.00,0.00,0.00,0.00,0.00,0.00,0.00,0.00,0.00,0.00,2
0.00,0.00,0.00,0.00,0.00,0.00,0.00,0.00,0.00,0.00,2
0.00,0.00,0.00,0.00,0.00,0.00,0.00,0.00,0.00,0.00,2
0.00,0.00,0.00,0.00,0.00,0.00,0.00,0.00,0.00,0.00,2
0.00,0.00,0.00,0.00,0.00,0.00,0.00,0.00,0.00,0.00,2
0.00,0.00,0.00,0.00,0.00,0.00,0.00,0.00,0.00,0.00,2
0.00,0.00,0.00,0.00,0.00,0.00,0.00,0.00,0.00,0.00,2
0.00,0.00,0.00,0.00,0.00,0.00,0.00,0.00,0.00,0.00,2
0.00,0.00,0.00,0.00,0.00,0.00,0.00,0.00,0.00,0.22,2
0.00,0.00,0.00,0.00,0.00,0.00,0.00,0.00,0.00,0.19,2
0.00,0.00,0.00,0.00,0.00,0.00,0.00,0.00,0.00,0.21,2
0.00,0.00,0.00,0.00,0.00,0.00,0.00,0.00,0.00,0.00,2
0.00,0.00,0.00,0.00,0.00,0.00,0.00,0.00,0.00,0.00,2
0.00,0.00,0.00,0.00,0.00,0.00,0.00,0.00,0.00,0.00,2
0.00,0.00,0.00,0.00,0.00,0.00,0.00,0.00,0.00,0.00,2
0.00,0.00,0.00,0.00,0.00,0.00,0.00,0.00,0.00,0.00,2
0.00,0.00,0.00,0.00,0.00,0.00,0.58,0.00,0.00,0.00,2
0.00,0.00,0.00,0.00,0.00,0.00,0.81,0.00,0.00,0.00,2
0.00,0.00,0.00,0.00,0.00,0.00,0.00,0.00,0.00,0.00,2
0.00,0.00,0.00,0.00,0.00,0.00,0.00,0.00,0.00,0.00,2
0.00,0.00,0.00,0.00,0.00,0.00,0.00,0.00,0.00,0.00,2
0.00,0.00,0.00,0.00,0.00,0.00,0.00,0.00,0.00,0.00,2
0.00,0.00,0.00,0.00,0.00,0.00,0.00,0.00,0.00,0.00,2
0.00,0.00,0.00,0.00,0.00,0.00,0.00,0.00,0.00,0.00,2
0.00,0.00,0.00,0.00,0.00,0.00,0.00,0.00,0.00,0.00,2
0.00,0.00,0.00,0.00,0.00,0.00,0.00,0.00,0.00,0.00,2
0.00,0.00,0.00,0.00,0.00,0.00,0.00,0.00,0.00,0.00,2
0.00,0.00,0.00,0.00,0.00,0.00,0.00,0.00,0.00,0.00,2
0.00,0.00,0.00,0.00,0.00,0.00,0.00,0.00,0.00,0.21,2
0.00,0.00,0.00,0.00,0.00,0.00,0.00,0.00,0.00,0.22,2
0.00,0.00,0.00,0.00,0.00,0.00,0.00,0.00,0.00,0.22,2
0.00,0.00,0.00,0.00,0.00,0.00,0.00,0.00,0.00,0.22,2
0.00,0.00,0.00,0.00,0.00,0.00,0.00,0.00,0.00,0.21,2
0.00,0.00,0.00,0.00,0.00,0.00,0.00,0.00,0.00,0.20,2
0.00,0.00,0.00,0.00,0.00,0.00,0.00,0.00,0.00,0.18,2
0.00,0.00,0.00,0.00,0.00,0.00,0.00,0.00,0.00,0.18,2
0.00,0.00,0.00,0.00,0.00,0.00,0.00,0.00,0.00,0.16,2
0.00,0.00,0.00,0.00,0.00,0.00,0.00,0.00,0.00,0.16,2
0.00,0.00,0.00,0.00,0.00,0.00,0.00,0.00,0.00,0.15,2
0.00,0.00,0.00,0.00,0.00,0.00,0.00,0.00,0.00,0.16,2
0.00,0.00,0.00,0.00,0.00,0.00,0.00,0.00,0.00,0.16,2
0.00,0.00,0.00,0.00,0.00,0.00,0.00,0.00,0.00,1.78,2
0.00,0.00,0.00,0.00,0.00,0.00,0.00,0.00,0.00,0.24,2
0.00,0.00,0.00,0.00,0.00,0.00,0.00,0.00,0.00,0.19,2
0.00,0.00,0.00,0.00,0.00,0.00,0.00,0.00,0.00,0.20,2
0.00,0.00,0.00,0.00,0.00,0.00,0.00,0.00,0.00,0.18,2
0.00,0.00,0.00,0.00,0.00,0.00,0.00,0.00,0.00,1.24,2
0.00,0.00,0.00,0.00,0.00,0.00,0.00,0.00,0.00,1.20,2
0.00,0.00,0.00,0.00,0.00,0.00,0.00,0.00,0.00,1.17,2
0.00,0.00,0.00,0.00,0.00,0.00,0.79,0.00,0.00,0.16,2
0.00,0.00,0.00,0.00,0.00,0.00,0.87,0.00,0.00,0.16,2
0.00,0.00,0.00,0.00,0.00,0.00,0.00,0.00,0.00,0.13,2
0.00,0.00,0.00,0.00,0.00,0.00,0.00,0.00,0.00,0.13,2
0.00,0.00,0.00,0.00,0.00,0.00,0.00,0.00,0.00,0.13,2
0.00,0.00,0.00,0.00,0.00,0.00,0.00,0.00,0.00,0.13,2
0.00,0.00,0.00,0.00,0.00,0.00,0.00,0.00,0.00,0.13,2
0.00,0.00,0.00,0.00,0.00,0.00,0.00,0.00,0.00,0.11,2
0.00,0.00,0.00,0.00,0.00,0.00,0.00,0.00,0.00,0.09,2
0.00,0.00,0.00,0.00,0.00,0.00,0.00,0.00,0.00,0.12,2
0.00,0.00,0.00,0.00,0.00,0.00,0.00,0.00,0.00,0.08,2
0.00,0.00,0.00,0.00,0.00,0.00,0.00,0.00,0.00,0.10,2
0.00,0.00,0.00,0.00,0.00,0.00,0.00,0.00,0.00,0.08,2
0.00,0.00,0.00,0.00,0.00,0.00,0.00,0.00,0.00,0.10,2
0.00,0.00,0.00,0.00,0.00,0.00,0.00,0.00,0.00,0.09,2
0.00,0.00,0.00,0.00,0.00,0.00,0.00,0.00,0.00,0.00,2
0.00,0.00,0.00,0.00,0.00,0.00,0.00,0.00,0.00,0.07,2
0.00,0.00,0.00,0.00,0.00,0.00,0.00,0.00,0.00,0.05,2
0.00,0.00,0.00,0.00,0.00,0.00,0.00,0.00,0.00,0.09,2
0.00,0.00,0.00,0.00,0.00,0.00,0.00,0.00,0.00,0.09,2
0.00,0.00,0.00,0.00,0.00,0.00,0.00,0.00,0.00,0.11,2
0.00,0.00,0.00,0.00,0.00,0.00,0.00,0.00,0.00,0.10,2
0.00,0.00,0.00,0.00,0.00,0.00,0.00,0.00,0.00,0.11,2
0.00,0.00,0.00,0.00,0.00,0.00,0.00,0.00,0.00,0.10,2
0.00,0.00,0.00,0.00,0.00,0.00,0.00,0.00,0.00,0.10,2
0.00,0.00,0.00,0.00,0.00,0.00,0.00,0.00,0.00,0.08,2
0.00,0.00,0.00,0.00,0.00,0.00,0.00,0.00,0.00,0.08,2
0.00,0.00,0.00,0.00,0.00,0.00,0.00,0.00,0.00,0.07,2
0.00,0.00,0.00,0.00,0.00,0.00,0.00,0.00,0.00,0.08,2
0.00,0.00,0.00,0.00,0.00,0.00,0.00,0.00,0.00,0.05,2
0.00,0.00,0.00,0.00,0.00,0.00,0.00,0.00,0.00,0.07,2
0.00,0.00,0.00,0.00,0.00,0.00,0.00,0.00,0.00,0.00,2
0.00,0.00,0.00,0.00,0.00,0.00,0.00,0.00,0.00,0.06,2
0.00,0.00,0.00,0.00,0.00,0.00,0.00,0.00,0.00,0.05,2
0.00,0.00,0.00,0.00,0.00,0.00,0.00,0.00,0.00,0.00,2
0.00,0.00,0.00,0.00,0.00,0.00,0.00,0.00,0.00,0.05,2
0.00,0.00,0.00,0.00,0.00,0.00,0.00,0.00,0.00,0.07,2
0.00,0.00,0.00,0.00,0.00,0.00,0.00,0.00,0.00,0.07,2
0.00,0.00,0.00,0.00,0.00,0.00,0.00,0.00,0.00,0.08,2
0.00,0.00,0.00,0.00,0.00,0.00,0.00,0.00,0.00,0.08,2
0.00,0.00,0.00,0.00,0.00,0.00,0.00,0.00,0.00,0.08,2
0.00,0.00,0.00,0.00,0.00,0.00,0.00,0.00,0.00,0.08,2
0.00,0.00,0.00,0.00,0.00,0.00,0.00,0.00,0.00,0.07,2
0.00,0.00,0.00,0.00,0.00,0.00,0.00,0.00,0.00,0.07,2
0.00,0.00,0.00,0.00,0.00,0.00,0.00,0.00,0.00,0.07,2
0.00,0.00,0.00,0.00,0.00,0.00,0.00,0.00,0.00,0.08,2
0.00,0.00,0.00,0.00,0.00,0.00,0.00,0.00,0.00,0.07,2
0.00,0.00,0.00,0.00,0.00,0.00,0.00,0.00,0.00,0.05,2
0.00,0.00,0.00,0.00,0.00,0.00,0.00,0.00,0.00,0.04,2
0.00,0.00,0.00,0.00,0.00,0.00,0.00,0.00,0.00,0.00,2
0.00,0.00,0.00,0.00,0.00,0.00,0.00,0.00,0.00,0.00,2
0.00,0.00,0.00,0.00,0.00,0.00,0.00,0.00,0.00,0.00,2
0.00,0.00,0.00,0.00,0.00,0.00,0.00,0.00,0.00,0.00,2
0.00,0.00,0.00,0.00,0.00,0.00,0.00,0.00,0.00,0.00,2
0.00,0.00,0.00,0.00,0.00,0.00,0.00,0.00,0.00,0.72,2
0.00,0.00,0.00,0.00,0.00,0.00,0.00,0.00,0.00,0.75,2
0.00,0.00,0.00,0.00,0.00,0.00,0.00,0.00,0.00,0.00,2
0.00,0.00,0.00,0.00,0.00,0.00,0.15,0.00,0.00,0.00,2
0.00,0.00,0.00,0.00,0.00,0.00,0.81,0.00,0.00,0.04,2
0.00,0.00,0.00,0.00,0.00,0.00,0.00,0.00,0.00,0.80,2
0.00,0.00,0.00,0.00,0.00,0.00,0.00,0.00,0.00,0.75,2
0.00,0.00,0.00,0.00,0.00,0.00,0.00,0.00,0.00,0.00,2
0.00,0.00,0.00,0.00,0.00,0.00,0.00,0.00,0.00,0.80,2
0.00,0.00,0.00,0.00,0.00,0.00,0.00,0.00,0.00,0.75,2
0.00,0.00,0.00,0.00,0.00,0.00,0.00,0.00,0.00,0.11,2
0.00,0.00,0.00,0.00,0.00,0.00,0.00,0.00,0.00,0.06,2
0.00,0.00,0.00,0.00,0.00,0.00,0.00,0.00,0.00,0.05,2
0.00,0.00,0.00,0.00,0.00,0.00,0.00,0.00,0.00,0.05,2
0.00,0.00,0.00,0.00,0.00,0.00,0.00,0.00,0.00,0.05,2
0.00,0.00,0.00,0.00,0.00,0.00,0.00,0.00,0.00,0.05,2
0.00,0.00,0.00,0.00,0.00,0.00,0.00,0.00,0.00,0.05,2
0.00,0.00,0.00,0.00,0.00,0.00,0.00,0.00,0.00,0.05,2
0.00,0.00,0.00,0.00,0.00,0.00,0.00,0.00,0.00,0.05,2
0.00,0.00,0.00,0.00,0.00,0.00,0.00,0.00,0.00,0.00,2
0.00,0.00,0.00,0.00,0.00,0.00,0.00,0.00,0.00,0.05,2
0.00,0.00,0.00,0.00,0.00,0.00,0.00,0.00,0.00,0.04,2
0.00,0.00,0.00,0.00,0.00,0.00,0.00,0.00,0.00,0.05,2
0.00,0.00,0.00,0.00,0.00,0.00,0.00,0.00,0.00,0.04,2
0.00,0.00,0.00,0.00,0.00,0.00,0.00,0.00,0.00,0.00,2
0.00,0.00,0.00,0.00,0.00,0.00,0.00,0.00,0.00,0.05,2
0.00,0.00,0.00,0.00,0.00,0.00,0.00,0.00,0.00,0.05,2
0.00,0.00,0.00,0.00,0.00,0.00,0.00,0.00,0.00,0.05,2
0.00,0.00,0.00,0.00,0.00,0.00,0.00,0.00,0.00,0.06,2
0.00,0.00,0.00,0.00,0.00,0.00,0.00,0.00,0.00,0.08,2
0.00,0.00,0.00,0.00,0.00,0.00,0.00,0.00,0.00,0.32,2
0.00,0.00,0.00,0.00,0.00,0.00,0.00,0.00,0.00,0.06,2
0.00,0.00,0.00,0.00,0.00,0.00,0.00,0.00,0.00,0.06,2
0.00,0.00,0.00,0.00,0.00,0.00,0.00,0.00,0.00,0.06,2
-0.55,0.02,-9.64,-65.31,240.97,145.45,0.00,0.00,0.00,0.00,2
-0.43,0.49,-9.99,24.29,2.93,-6.10,0.00,0.00,0.00,0.00,2
-0.44,0.46,-9.93,24.17,-0.12,-5.31,0.00,0.00,0.00,0.00,2
-0.42,0.46,-9.96,23.68,0.92,-6.47,0.00,0.00,0.00,0.00,2
-0.40,0.43,-10.01,23.01,-3.48,-6.35,0.00,0.00,0.00,0.00,2
-0.39,0.46,-9.92,23.07,1.46,-6.41,0.00,0.00,0.00,0.00,2
-0.40,0.48,-9.95,22.58,2.75,-5.98,0.00,0.00,0.00,0.00,2
-0.44,0.46,-10.04,24.29,2.01,-4.82,0.00,0.00,0.00,0.00,2
-0.41,0.44,-9.97,22.58,1.16,-6.04,0.00,0.00,0.00,0.64,2
-0.43,0.45,-10.07,22.95,0.37,-5.68,0.00,0.00,0.00,0.62,2
-0.43,0.43,-9.94,23.19,0.61,-5.25,0.00,0.00,0.00,0.62,2
-0.43,0.50,-9.94,22.89,-0.12,-6.29,0.00,0.00,0.00,0.00,2
-0.39,0.48,-9.94,23.80,-1.22,-6.04,0.00,0.00,0.00,0.00,2
-0.41,0.43,-9.98,22.77,-7.51,-5.80,0.00,0.00,0.00,0.00,2
-0.44,0.46,-9.97,24.72,0.43,-6.71,0.00,0.00,0.00,0.00,2
-0.40,0.46,-9.92,21.73,0.61,-6.77,0.00,0.00,0.00,0.00,2
-0.43,0.44,-9.94,24.41,1.04,-7.39,0.00,0.00,0.00,0.00,2
-0.41,0.48,-9.94,22.95,0.73,-6.47,0.00,0.00,0.00,0.00,2
-0.44,0.48,-9.95,22.16,-0.79,-7.26,0.00,0.00,0.00,0.00,2
-0.40,0.46,-9.98,23.44,1.28,-5.19,0.00,0.00,0.00,0.00,2
-0.43,0.48,-10.04,24.60,-0.31,-6.53,0.00,0.00,0.00,0.00,2
-0.41,0.48,-9.95,22.52,1.10,-6.53,0.00,0.00,0.00,0.00,2
-0.40,0.43,-9.95,24.29,1.46,-7.75,0.00,0.00,0.00,0.00,2
-0.40,0.47,-9.92,24.05,-0.61,-7.57,0.00,0.00,0.00,0.00,2
-0.44,0.47,-9.94,22.16,-0.24,-4.58,0.00,0.00,0.00,0.00,2
-0.43,0.47,-10.00,22.95,0.43,-5.92,0.00,0.00,0.00,0.00,2
-0.45,0.47,-9.93,22.03,-0.31,-5.92,0.00,0.00,0.00,0.00,2
-0.47,0.43,-9.95,23.01,-2.56,-6.53,0.00,0.00,0.00,0.00,2
-0.44,0.47,-9.93,22.40,0.37,-5.86,0.00,0.00,0.00,0.00,2
-0.41,0.49,-9.94,22.09,-2.62,-6.65,0.00,0.00,0.00,0.00,2
-0.48,0.46,-9.95,23.62,0.85,-6.35,0.00,0.00,0.00,0.00,2
-0.43,0.46,-9.94,24.41,-1.04,-5.00,0.98,0.00,0.00,0.00,2
-0.39,0.46,-9.96,23.01,0.31,-6.77,1.00,0.00,0.00,0.00,2
-0.42,0.48,-9.97,22.16,-2.01,-7.75,1.01,0.00,0.00,0.00,2
-0.43,0.45,-9.94,23.74,2.44,-6.53,0.00,0.00,0.00,0.00,2
-0.40,0.45,-9.90,23.01,1.59,-5.00,0.00,0.00,0.00,0.00,2
-0.42,0.48,-9.96,23.99,-0.92,-5.37,0.00,0.00,0.00,0.00,2
-0.40,0.48,-9.92,22.46,0.06,-7.57,0.00,0.00,0.00,0.60,2
-0.41,0.50,-9.96,23.44,-0.43,-6.16,0.00,0.00,0.00,0.58,2
-0.43,0.44,-9.92,22.34,0.49,-4.52,0.00,0.00,0.00,0.56,2
-0.41,0.49,-9.96,23.62,0.92,-5.92,0.00,0.00,0.00,0.00,2
-0.41,0.47,-9.94,23.32,0.85,-6.35,0.00,0.00,0.00,0.00,2
-0.39,0.46,-9.94,24.17,0.12,-5.98,0.00,0.00,0.00,0.00,2
-0.39,0.45,-9.99,22.34,0.85,-6.16,0.00,0.00,0.00,0.00,2
-0.43,0.45,-9.95,24.11,0.00,-6.71,0.00,0.00,0.00,0.00,2
-0.42,0.45,-9.97,24.72,-0.92,-6.71,0.00,0.00,0.00,0.00,2
-0.41,0.44,-9.92,23.68,-1.28,-6.84,0.00,0.00,0.00,0.00,2
-0.40,0.46,-9.97,21.18,1.28,-7.81,0.00,0.00,0.00,0.00,2
-0.41,0.46,-9.97,21.73,-0.37,-6.10,0.00,0.00,0.00,0.00,2
-0.40,0.47,-9.96,21.67,2.81,-7.08,0.00,0.00,0.00,0.00,2
-0.42,0.47,-9.91,22.16,-0.12,-7.51,0.00,0.00,0.00,0.00,2
-0.39,0.46,-9.93,20.94,0.79,-6.35,0.00,0.00,0.00,0.00,2
-0.42,0.48,-9.99,21.85,-0.37,-6.23,0.00,0.00,0.00,0.00,2
-0.42,0.47,-9.96,24.35,1.83,-7.14,0.00,0.00,0.00,0.00,2
-0.42,0.47,-9.95,22.83,1.40,-6.16,0.00,0.00,0.00,0.00,2
-0.38,0.52,-9.97,24.48,-0.18,-8.12,0.00,0.00,0.00,0.59,2
-0.44,0.46,-9.95,22.58,2.44,-4.88,0.00,0.00,0.00,0.57,2
-0.53,0.45,-10.02,22.83,-6.23,-6.04,0.00,0.00,0.00,0.00,2
-0.43,0.45,-9.98,23.50,0.73,-8.06,0.00,0.00,0.00,0.00,2
-0.57,0.14,-10.03,18.98,0.92,-152.28,0.00,0.00,0.00,0.00,2
-0.19,0.91,-9.94,18.25,12.63,-225.10,0.00,0.00,0.00,0.00,2
-0.05,0.06,-1.24,2.87,0.12,-0.61,0.00,2.70,0.28,0.00,2
-0.05,0.06,-1.24,3.05,0.00,-0.67,0.00,2.69,0.27,0.00,2
-0.05,0.06,-1.24,3.05,0.12,-0.73,0.00,3.34,0.28,0.00,2
-0.05,0.06,-1.24,2.81,0.06,-0.55,0.00,2.64,0.28,0.00,2
-0.05,0.06,-1.24,3.30,0.00,-0.49,0.00,2.56,0.27,0.00,2
-0.05,0.06,-1.25,3.05,0.06,-0.31,0.00,2.62,0.26,0.00,2
-0.05,0.06,-1.25,2.99,0.06,-0.67,0.00,4.84,0.28,0.00,2
-0.05,0.06,-1.24,3.17,0.06,-0.61,0.00,0.75,0.21,0.00,2
-0.05,0.05,-1.25,3.05,0.31,-0.55,0.55,3.71,0.09,0.00,2
-0.05,0.06,-1.24,2.69,0.37,-0.61,0.76,3.72,0.09,0.00,2
-0.06,0.06,-1.25,2.87,0.24,-0.67,0.80,2.73,0.07,0.00,2
-0.06,0.06,-1.24,2.87,0.18,-0.55,0.74,2.64,0.06,0.00,2
-0.05,0.06,-1.24,3.23,0.00,-0.24,0.70,2.75,0.06,0.00,2
-0.05,0.06,-1.24,2.87,-0.18,-0.61,0.59,3.38,0.07,0.00,2
-0.06,0.06,-1.24,3.05,-0.06,-0.55,0.00,2.62,0.23,0.00,2
-0.05,0.06,-1.24,2.87,-0.18,-0.43,0.00,0.56,0.23,0.00,2
-0.05,0.06,-1.25,2.44,1.34,-0.37,0.00,2.62,0.27,0.00,2
-0.05,0.06,-1.25,2.56,0.73,-0.49,0.00,2.53,0.27,0.00,2
-0.05,0.06,-1.25,2.32,1.22,-0.67,0.00,2.59,0.27,0.18,2
-0.04,0.09,-1.25,4.76,-4.03,-0.79,0.00,2.58,0.26,0.39,2
-0.04,0.06,-1.24,3.66,-2.32,-0.61,0.00,2.59,0.27,0.42,2
-0.05,0.06,-1.25,2.93,-0.49,-0.55,0.00,2.58,0.26,0.00,2
-0.05,0.05,-1.25,3.05,-0.43,-0.55,0.00,2.59,0.26,0.00,2
-0.06,0.05,-1.24,2.87,0.37,0.55,0.00,2.56,0.27,0.00,2
-0.05,0.07,-1.22,3.11,-1.59,1.40,0.00,2.57,0.26,0.00,2
-0.05,0.06,-1.24,2.99,-0.06,-0.85,0.00,0.00,0.00,0.00,2
-0.05,0.06,-1.25,2.75,0.18,-0.67,0.00,0.00,0.00,0.00,2
-0.05,0.06,-1.24,2.87,-0.18,-0.73,0.00,0.00,0.00,0.00,2
-0.05,0.06,-1.24,2.87,0.18,-0.61,0.00,0.00,0.00,0.00,2
-0.05,0.06,-1.24,3.05,-0.12,-0.61,0.00,0.00,0.00,0.00,2
-0.05,0.06,-1.24,2.62,0.12,-1.10,0.00,0.00,0.00,0.00,2
-0.05,0.06,-1.24,2.87,-0.24,-0.85,0.00,0.00,0.00,0.00,2
-0.05,0.06,-1.24,2.99,0.06,-0.61,0.00,0.00,0.00,0.00,2
-0.05,0.06,-1.24,2.99,-0.06,-0.79,0.00,0.00,0.00,0.00,2
-0.05,0.06,-1.24,3.05,-0.06,-0.98,0.00,0.00,0.00,0.00,2
-0.05,0.06,-1.25,2.81,0.00,-0.73,0.00,0.00,0.00,0.00,2
-0.05,0.06,-1.25,2.93,0.06,-0.79,0.00,0.00,0.00,0.00,2
0.03,0.06,-1.09,-157.53,12.82,-1.59,0.00,0.00,0.00,0.00,2
-0.05,0.06,-1.24,2.93,-0.43,-0.61,0.00,0.00,0.00,0.00,2
-0.02,0.15,-1.24,3.30,3.11,29.17,0.00,0.00,0.00,0.00,2
-0.05,0.08,-1.23,1.95,6.90,1.28,0.00,0.00,0.00,0.00,2
-0.17,0.04,-1.24,2.01,-5.86,-47.61,0.00,0.00,0.00,0.09,2
-0.05,0.06,-1.25,2.44,-0.67,-0.92,0.00,0.00,0.00,0.10,2
-0.05,0.06,-1.24,2.81,-0.12,-0.67,0.00,0.00,0.00,0.94,2
-0.05,0.06,-1.24,3.05,0.06,-0.85,0.00,0.00,0.00,0.88,2
-0.05,0.06,-1.24,2.81,-0.31,-0.92,0.00,0.00,0.00,0.21,2
-0.05,0.06,-1.24,2.81,-0.12,-0.67,0.00,0.00,0.00,0.09,2
-0.05,0.06,-1.24,3.05,0.00,-0.79,0.00,0.00,0.00,0.08,2
-0.05,0.06,-1.25,2.87,0.00,-0.92,0.00,0.00,0.00,0.05,2
-0.05,0.06,-1.25,2.81,-0.18,-0.79,0.00,0.00,0.00,0.05,2
-0.05,0.06,-1.24,2.87,0.24,-0.85,0.00,0.00,0.00,0.06,2
-0.05,0.06,-1.25,2.81,0.24,-0.85,0.00,0.00,0.00,0.07,2
-0.05,0.06,-1.24,2.87,0.12,-0.67,0.00,0.00,0.00,0.81,2
-0.05,0.06,-1.24,2.87,0.18,-0.67,0.00,0.00,0.00,0.78,2
-0.05,0.06,-1.25,2.87,-0.12,-0.79,0.00,0.00,0.00,0.75,2
-0.05,0.06,-1.25,2.93,0.00,-0.67,0.00,0.00,0.00,0.09,2
-0.05,0.06,-1.24,3.17,-0.12,-0.92,0.00,0.00,0.00,0.11,2
-0.05,0.06,-1.24,4.52,-5.92,-1.16,0.00,0.00,0.00,0.11,2
-0.05,0.06,-1.26,2.50,0.85,0.18,0.00,0.00,0.00,0.00,2
-0.12,0.03,-1.24,6.41,-8.85,-1.34,0.00,0.00,0.00,0.00,2
-0.08,0.04,-1.23,2.38,0.73,-3.11,0.00,0.00,0.00,0.00,2
-0.16,0.02,-1.24,4.52,-2.32,-0.73,0.00,0.00,0.00,0.00,2
-0.07,0.05,-1.24,4.88,-5.19,-1.22,0.00,0.00,0.00,0.00,2
-0.08,0.05,-1.24,-0.12,6.53,-0.43,0.00,0.00,0.00,0.00,2
-0.06,0.06,-1.24,3.30,-2.81,-4.39,0.00,0.00,0.00,0.06,2
-0.06,0.06,-1.25,2.87,0.06,-0.79,0.00,0.00,0.00,0.00,2
-0.06,0.06,-1.24,2.75,-0.12,-0.79,0.00,0.00,0.00,0.73,2
-0.06,0.06,-1.24,3.11,0.24,-0.85,0.00,0.00,0.00,0.68,2
-0.05,0.06,-1.24,3.05,0.06,-0.73,0.00,0.00,0.00,0.67,2
-0.06,0.06,-1.24,2.99,0.12,-0.92,0.00,0.00,0.00,0.05,2
-0.05,0.05,-1.24,3.05,-0.06,-0.67,0.00,0.00,0.00,0.00,2
-0.06,0.06,-1.24,2.62,0.18,-0.49,0.00,0.00,0.00,0.06,2
-0.06,0.06,-1.24,2.99,0.24,-0.55,0.00,0.00,0.00,0.65,2
-0.05,0.06,-1.24,3.11,0.00,-0.67,0.00,0.00,0.00,0.65,2
-0.05,0.06,-1.24,2.87,-0.12,-0.67,0.00,0.00,0.00,0.63,2
-0.06,0.06,-1.25,2.99,-0.12,-0.61,0.00,0.00,0.00,0.63,2
-0.05,0.06,-1.24,3.36,-0.31,-0.79,0.00,0.00,0.00,0.00,2
-0.05,0.06,-1.24,2.99,0.06,-0.67,0.00,0.00,0.00,0.00,2
-0.06,0.05,-1.24,3.54,-1.22,-0.12,0.00,0.00,0.00,0.00,2
-0.06,0.05,-1.25,2.87,0.37,-0.37,0.00,0.00,0.00,0.00,2
-0.05,0.06,-1.24,2.87,0.12,-0.85,0.00,0.00,0.00,0.00,2
-0.05,0.06,-1.23,2.69,1.10,-0.79,0.00,0.00,0.00,0.00,2
-0.07,0.06,-1.26,2.87,-1.89,5.80,0.00,0.00,0.00,0.10,2
-0.06,0.07,-1.24,2.14,5.00,-3.11,0.00,0.00,0.00,0.00,2
-0.05,0.06,-1.25,2.50,1.46,-1.10,0.00,0.00,0.00,0.11,2
-0.06,0.06,-1.24,3.30,-0.31,-0.79,0.00,0.00,0.00,0.12,2
-0.07,0.06,-1.25,2.93,-1.28,-1.04,0.00,0.00,0.00,0.22,2
-0.06,0.06,-1.25,2.93,-0.73,-0.55,0.00,0.00,0.00,0.19,2
-0.06,0.04,-1.24,2.99,-0.55,-0.06,0.00,0.00,0.00,0.16,2
-0.06,0.06,-1.25,2.93,-0.85,-0.98,0.00,0.00,0.00,0.10,2
-0.06,0.06,-1.25,2.69,-1.04,0.06,0.00,0.00,0.21,0.19,2
-0.07,0.05,-1.26,2.87,1.89,-0.49,0.00,0.00,0.14,0.16,2
-0.07,0.05,-1.25,2.93,-0.92,-0.61,0.00,0.00,0.00,0.00,2
-0.05,0.06,-1.24,2.81,-0.18,-0.61,0.00,0.00,0.00,0.00,2
-0.05,0.06,-1.25,2.99,0.06,-0.92,0.00,0.65,0.00,0.00,2
-0.06,0.06,-1.24,2.87,-0.06,-0.61,0.00,0.73,0.00,0.00,2
-0.06,0.06,-1.24,2.93,-0.12,-0.92,0.00,0.75,0.00,0.00,2
-0.06,0.06,-1.24,2.93,0.61,-0.73,0.00,0.00,0.00,0.00,2
-0.05,0.06,-1.24,2.93,0.24,-0.85,0.00,0.00,0.00,0.00,2
-0.06,0.06,-1.24,3.05,-0.06,-0.61,0.00,0.00,0.00,0.00,2
-0.06,0.06,-1.24,2.93,0.12,-0.79,0.00,0.00,0.00,0.00,2
-0.05,0.05,-1.24,2.87,0.43,-0.85,0.00,0.00,0.00,0.00,2
-0.06,0.06,-1.25,2.93,0.00,-0.73,0.00,0.00,0.00,0.00,2
-0.05,0.06,-1.24,3.05,0.18,-0.85,0.00,0.00,0.00,0.05,2
-0.06,0.06,-1.24,2.93,-0.18,-0.79,0.00,0.00,0.00,0.07,2
-0.06,0.05,-1.25,2.99,1.16,-0.85,0.00,0.00,0.00,0.09,2
-0.05,0.06,-1.25,3.05,0.00,-0.55,0.92,0.00,0.00,0.10,2
-0.06,0.06,-1.24,2.99,0.00,-0.49,0.99,0.00,0.00,0.09,2
-0.06,0.06,-1.25,2.99,-0.12,-0.79,0.56,0.00,0.00,0.05,2
-0.06,0.06,-1.25,2.75,-0.06,-0.67,0.00,0.00,0.00,0.00,2
-0.06,0.06,-1.24,2.99,-0.06,-0.79,0.00,0.00,0.00,0.91,2
-0.05,0.06,-1.25,3.17,0.06,-0.73,0.00,0.00,0.00,0.80,2
-0.05,0.05,-1.25,2.87,0.06,-0.61,0.00,0.00,0.00,0.00,2
-0.06,0.06,-1.24,2.87,0.06,-0.73,0.00,0.00,0.00,0.00,2
-0.06,0.06,-1.25,2.81,0.06,-0.92,0.00,0.00,0.00,0.00,2
-0.06,0.06,-1.25,3.11,-0.12,-0.85,0.00,0.00,0.00,0.00,2
-0.06,0.06,-1.25,2.81,0.31,-0.85,0.00,0.00,0.00,0.00,2
-0.06,0.06,-1.24,3.05,0.06,-0.79,0.00,0.00,0.00,0.00,2
-0.06,0.06,-1.24,2.87,0.06,-0.67,0.00,0.00,0.00,0.00,2
-0.06,0.06,-1.24,2.75,0.00,-0.73,0.00,0.00,0.00,0.00,2
-0.06,0.06,-1.24,2.87,0.12,-0.67,0.00,0.00,0.00,0.00,2
-0.05,0.06,-1.24,2.87,0.24,-0.61,0.00,0.00,0.00,0.00,2
-0.06,0.06,-1.25,2.62,0.06,-0.92,0.00,0.00,0.00,0.00,2
-0.06,0.06,-1.24,2.99,0.18,-0.73,0.00,0.00,0.00,0.00,2
-0.06,0.06,-1.24,2.87,0.00,-0.85,0.00,0.00,0.00,0.00,2
-0.05,0.06,-1.25,2.75,0.06,-1.04,0.00,0.00,0.00,0.00,2
-0.06,0.06,-1.24,2.87,-0.12,-0.73,0.00,0.00,0.00,0.00,2
-0.05,0.06,-1.25,2.75,-0.06,-0.85,0.00,0.00,0.00,0.00,2
-0.05,0.06,-1.24,3.78,-2.69,-0.92,0.00,0.00,0.00,0.00,2
-0.05,0.06,-1.24,3.30,-0.49,-0.73,0.00,0.00,0.00,0.05,2
-0.07,0.06,-1.24,2.93,0.00,-0.85,0.00,0.00,0.00,0.00,2
-0.06,0.06,-1.25,2.93,1.10,-0.73,0.00,0.00,0.00,0.00,2
-0.09,0.04,-1.24,0.12,6.71,3.36,0.00,0.00,0.00,0.00,2
-0.06,0.06,-1.25,2.93,0.00,-0.79,0.00,0.00,0.00,0.00,2
-0.06,0.06,-1.24,2.81,0.12,-0.67,0.00,0.00,0.00,0.00,2
-0.06,0.06,-1.24,3.05,0.67,-0.79,0.00,0.00,0.00,0.00,2
-0.06,0.06,-1.24,2.87,0.24,-0.92,0.00,0.00,0.00,0.00,2
-0.06,0.06,-1.24,2.81,-0.18,-0.79,0.00,0.00,0.00,0.00,2
-0.05,0.06,-1.24,2.62,0.79,-0.85,0.00,0.00,0.00,0.00,2
-0.06,0.06,-1.25,2.93,0.00,-0.61,0.00,0.00,0.00,0.00,2
-0.05,0.06,-1.24,2.93,0.00,-0.79,0.00,0.00,0.00,0.00,2
-0.06,0.06,-1.24,4.94,-6.59,-0.85,0.00,0.00,0.00,0.00,2
-0.06,0.08,-1.25,3.17,0.55,-0.55,0.00,0.00,0.00,0.00,2
-0.08,0.06,-1.24,-0.61,8.54,-2.81,0.00,0.00,0.00,0.00,2
-0.05,0.08,-1.23,-1.46,10.01,-0.12,0.00,0.00,0.00,0.00,2
-0.09,0.12,-1.27,1.89,-9.22,0.06,0.00,0.00,0.00,0.00,2
-0.06,0.06,-1.24,3.05,0.24,0.00,0.00,0.00,0.00,0.00,2
-0.06,0.06,-1.24,2.87,0.31,-0.49,0.00,0.00,0.00,0.78,2
-0.06,0.06,-1.24,2.81,-0.06,-1.04,0.00,0.00,0.00,0.78,2
-0.06,0.06,-1.24,2.93,0.00,-0.73,0.00,0.00,0.00,0.74,2
-0.06,0.06,-1.24,3.17,0.12,-0.61,0.00,0.00,0.00,0.00,2
-0.06,0.06,-1.24,2.81,-0.06,-0.67,0.00,0.00,0.00,0.00,2
-0.06,0.06,-1.24,3.05,-0.06,-0.67,0.00,0.55,0.00,0.00,2
-0.05,0.06,-1.24,2.69,0.06,-0.67,0.00,0.68,0.00,0.00,2
-0.06,0.06,-1.25,3.05,0.00,-0.79,0.00,0.39,0.00,0.00,2
-0.05,0.06,-1.24,3.05,0.00,-0.73,0.00,0.00,0.00,0.00,2
-0.06,0.06,-1.24,2.81,-0.12,-0.79,0.39,0.00,0.00,0.00,2
-0.06,0.06,-1.24,2.87,0.12,-0.55,0.76,0.00,0.00,0.00,2
-0.06,0.06,-1.25,3.05,0.43,-0.85,0.00,0.00,0.00,0.00,2
-0.06,0.06,-1.25,2.81,0.06,-0.85,0.00,0.00,0.00,0.00,2
-0.06,0.06,-1.25,2.99,0.00,-0.67,0.00,0.00,0.00,0.00,2
-0.06,0.06,-1.24,2.81,-0.12,-1.04,0.00,0.00,0.00,0.00,2
-0.06,0.06,-1.24,2.99,0.18,-0.55,0.00,0.00,0.00,0.00,2
-0.06,0.06,-1.24,2.81,0.79,-0.73,0.00,0.00,0.00,0.00,2
-0.06,0.06,-1.25,2.75,0.00,-0.43,0.00,0.00,0.00,0.00,2
-0.06,0.06,-1.24,2.81,0.12,-0.67,0.00,0.00,0.00,0.00,2
-0.06,0.06,-1.24,2.87,0.24,-2.01,0.00,0.00,0.00,0.00,2
-0.06,0.06,-1.25,2.93,0.00,-0.73,0.00,0.00,0.00,0.00,2
-0.06,0.06,-1.25,2.69,-0.12,-0.73,0.00,0.00,0.00,0.00,2
-0.06,0.06,-1.24,3.17,0.00,-0.85,0.00,0.00,0.00,0.00,2
-0.05,0.06,-1.24,2.93,0.98,-1.10,0.00,0.00,0.00,0.00,2
-0.04,0.06,-1.23,2.62,0.92,-0.85,0.00,0.00,0.00,0.00,2
-0.07,0.06,-1.26,4.09,-8.48,1.59,0.00,0.00,0.00,0.00,2
-0.06,0.06,-1.25,2.99,-0.67,-0.73,0.00,0.00,0.00,0.00,2
-0.05,0.06,-1.25,2.81,0.55,-5.86,0.00,0.00,0.00,0.00,2
-0.06,0.05,-1.26,3.72,0.85,1.59,0.00,0.00,0.00,0.00,2
-0.07,0.05,-1.25,2.93,-1.04,1.34,0.00,0.00,0.00,0.00,2
-0.05,0.06,-1.24,2.87,0.06,-0.79,0.00,0.00,0.00,0.00,2
-0.04,0.05,-1.22,4.64,3.97,-0.67,0.00,0.00,0.00,0.00,2
-0.03,0.03,-1.27,4.46,1.89,5.92,0.00,0.00,0.00,0.00,2
-0.05,0.06,-1.26,8.85,11.54,-0.43,0.00,0.00,0.00,0.00,2
-0.06,0.06,-1.25,3.23,-0.67,-4.33,0.00,0.00,0.00,0.00,2
-0.04,0.06,-1.24,2.75,0.31,-3.23,0.00,0.00,0.00,0.00,2
-0.03,0.05,-1.23,0.67,-4.39,-0.98,0.00,0.00,0.00,0.00,2
-0.04,0.08,-1.24,2.69,-0.85,-8.85,0.00,0.00,0.00,0.00,2
-0.09,0.03,-1.17,0.67,4.46,-20.26,0.00,0.00,0.00,0.00,2
-0.03,0.03,-1.23,5.00,-5.98,5.49,0.00,0.00,0.00,0.00,2
-0.00,0.05,-1.22,5.86,5.74,-6.04,0.00,0.00,0.00,0.05,2
-0.06,0.04,-1.25,2.81,0.43,-2.50,0.00,0.00,0.00,0.05,2
-0.05,0.05,-1.24,1.04,-4.46,-1.34,0.00,0.00,0.00,0.00,2
-0.06,0.06,-1.25,3.42,-1.95,-1.04,0.00,0.00,0.00,0.00,2
-0.06,0.07,-1.24,3.36,1.34,-0.92,0.00,0.00,0.00,0.00,2
-0.05,0.06,-1.25,3.97,-1.77,-0.67,0.00,0.00,0.00,0.00,2
0.01,0.07,-1.25,12.70,18.98,-0.85,0.00,0.00,0.00,0.05,2
-0.06,0.07,-1.27,3.23,0.92,3.91,0.00,0.00,0.00,0.08,2
-0.05,0.06,-1.24,3.11,0.18,-0.67,0.00,0.00,0.00,0.00,2
-0.05,0.06,-1.24,2.99,-0.06,-0.98,0.00,0.00,0.00,0.00,2
-0.05,0.06,-1.24,2.93,0.00,-0.67,0.00,0.00,0.00,0.00,2
-0.06,0.06,-1.25,3.54,-2.69,-4.76,0.00,0.00,0.00,0.00,2
-0.05,0.06,-1.25,4.39,2.69,7.26,0.00,0.00,0.00,0.00,2
-0.05,0.06,-1.24,2.99,-0.06,-0.73,0.00,0.00,0.00,0.00,2
-0.03,0.05,-1.23,3.11,0.98,-0.55,0.00,0.00,0.00,0.00,2
-0.03,0.07,-1.23,3.05,0.73,-0.24,0.00,0.00,0.00,0.00,2
-0.04,0.06,-1.24,1.34,-3.85,-0.37,0.00,0.00,0.00,0.00,2
-0.05,0.05,-1.25,2.93,-0.31,2.08,0.00,0.00,0.00,0.00,2
-0.05,0.06,-1.25,2.44,-0.61,-0.67,0.00,0.00,0.00,0.00,2
-0.03,0.05,-1.24,3.30,0.85,-0.85,0.00,0.00,0.00,0.00,2
-0.09,0.13,-1.24,5.13,-7.57,2.14,0.00,0.00,0.00,0.00,2
-0.05,0.06,-1.24,3.05,-0.06,-0.98,0.00,0.00,0.00,0.00,2
-0.05,0.07,-1.24,2.62,-0.37,-0.92,0.00,0.00,0.00,0.00,2
-0.05,0.06,-1.25,3.05,0.06,-0.92,0.00,0.00,0.00,0.00,2
-0.05,0.07,-1.25,2.81,0.24,-0.85,0.00,0.00,0.00,0.00,2
-0.04,0.06,-1.22,5.43,6.04,-1.28,0.00,0.00,0.00,0.00,2
-0.05,0.06,-1.25,2.69,0.31,-0.61,0.00,0.00,0.00,0.00,2
-0.04,0.06,-1.25,3.05,-0.06,-0.73,0.00,0.00,0.00,0.00,2
-0.05,0.06,-1.24,2.87,0.12,-0.67,0.00,0.00,0.00,0.00,2
-0.05,0.05,-1.24,2.62,0.31,-1.04,0.00,0.00,0.00,0.00,2
-0.05,0.06,-1.24,2.69,-0.18,-0.79,0.00,0.00,0.00,0.00,2
-0.06,0.06,-1.25,3.11,0.43,-0.61,0.00,0.00,0.00,0.00,2
-0.05,0.06,-1.24,3.17,-0.24,-0.73,0.00,0.00,0.00,0.00,2
-0.06,0.04,-1.24,2.93,0.24,3.11,0.00,0.00,0.00,0.07,2
-0.04,0.06,-1.24,2.75,0.79,-1.16,0.00,0.00,0.00,0.00,2
-0.06,0.05,-1.26,2.56,-3.23,-6.59,0.00,0.00,0.00,0.14,2
-0.06,0.06,-1.25,3.11,1.46,-0.31,0.00,0.00,0.00,0.00,2
-0.07,0.06,-1.25,3.05,-1.53,1.34,0.00,0.00,0.00,0.06,2
-0.05,0.06,-1.24,3.30,-0.24,-1.16,0.00,0.00,0.00,0.00,2
-0.07,0.06,-1.24,2.93,-0.98,-0.92,0.00,0.00,0.00,0.00,2
-0.05,0.06,-1.25,2.75,1.28,-0.73,0.00,0.00,0.00,0.00,2
-0.07,0.06,-1.25,2.99,0.24,-0.85,0.00,0.00,0.00,0.00,2
-0.06,0.06,-1.25,3.05,-0.06,-0.85,0.00,0.00,0.00,0.00,2
-0.05,0.07,-1.25,2.87,-0.79,1.77,0.00,0.00,0.00,0.00,2
-0.06,0.06,-1.24,2.69,0.85,-0.85,0.00,0.00,0.00,0.04,2
-0.05,0.05,-1.24,3.17,0.06,-0.92,0.00,0.00,0.00,0.05,2
-0.07,0.05,-1.25,2.69,-1.95,0.43,0.00,0.00,0.00,0.00,2
-0.07,0.06,-1.25,2.93,-0.24,-0.55,0.00,0.00,0.00,0.00,2
-0.05,0.06,-1.24,2.69,2.01,-3.66,0.00,0.00,0.00,0.00,2
-0.06,0.05,-1.25,3.30,-3.66,-2.32,0.00,0.00,0.00,0.00,2
-0.05,0.06,-1.25,3.05,-0.12,-0.85,0.00,0.00,0.00,0.00,2
-0.05,0.06,-1.24,3.05,0.00,-0.79,0.00,0.00,0.00,0.00,2
-0.05,0.06,-1.24,2.99,-0.12,-1.04,0.00,0.00,0.00,0.00,2
-0.05,0.07,-1.25,2.87,-0.37,-0.67,0.00,0.00,0.00,0.00,2
-0.05,0.06,-1.25,2.87,0.00,-0.79,0.00,0.00,0.00,0.00,2
-0.05,0.05,-1.24,2.75,0.24,-0.67,0.00,0.00,0.00,0.04,2
-0.05,0.06,-1.24,2.81,0.12,-0.98,0.00,0.00,0.00,0.00,2
-0.06,0.06,-1.25,2.81,0.24,-0.79,0.00,0.00,0.00,0.00,2
-0.05,0.06,-1.25,2.87,0.12,-0.67,0.31,0.00,0.00,0.00,2
-0.05,0.06,-1.24,2.99,0.06,-0.92,0.41,0.00,0.00,0.00,2
-0.05,0.06,-1.24,2.87,0.06,-0.73,0.32,0.00,0.00,0.00,2
-0.05,0.06,-1.24,2.93,-0.06,-0.85,0.00,0.00,0.00,0.00,2
-0.05,0.06,-1.24,3.17,0.37,-0.61,0.00,0.00,0.00,0.86,2
-0.05,0.06,-1.25,2.87,-0.24,-0.85,0.00,0.00,0.00,0.85,2
-0.06,0.06,-1.25,2.69,0.24,-0.85,0.00,0.00,0.00,0.78,2
-0.06,0.06,-1.25,2.99,0.06,-0.61,0.00,0.00,0.00,0.00,2
-0.05,0.06,-1.24,2.69,0.12,-0.85,0.00,0.68,0.00,0.00,2
-0.05,0.06,-1.24,2.81,0.06,-0.73,0.00,0.69,0.00,0.00,2
-0.05,0.06,-1.25,2.81,0.00,-0.85,0.00,0.61,0.00,0.00,2
-0.05,0.06,-1.25,2.81,0.06,-0.85,0.00,0.60,0.00,0.00,2
-0.05,0.06,-1.25,2.87,-0.12,-0.67,0.00,0.00,0.00,0.00,2
-0.05,0.06,-1.24,2.87,0.49,-0.98,0.00,0.00,0.00,0.00,2
-0.05,0.06,-1.24,2.99,0.37,-0.73,0.00,0.00,0.00,0.00,2
-0.05,0.06,-1.25,3.23,-0.37,-0.79,0.00,0.00,0.00,0.00,2
-0.06,0.06,-1.24,2.81,-0.06,-0.92,0.00,0.00,0.00,0.00,2
-0.05,0.06,-1.24,2.93,0.18,-0.55,0.00,0.00,0.00,0.00,2
-0.05,0.06,-1.24,2.75,-0.06,-0.79,0.00,0.00,0.00,0.00,2
-0.05,0.06,-1.24,3.05,0.00,-0.98,0.00,0.00,0.00,0.00,2
-0.05,0.06,-1.24,2.99,0.00,-0.79,0.00,0.00,0.00,0.00,2
-0.05,0.06,-1.24,2.56,0.18,-0.92,0.00,0.00,0.00,0.00,2
-0.05,0.06,-1.24,2.87,-0.06,-0.98,0.00,0.00,0.00,0.00,2
-0.05,0.06,-1.24,3.11,-0.06,-0.61,0.00,0.00,0.00,0.00,2
-0.05,0.06,-1.24,2.93,0.00,-1.04,0.00,0.00,0.00,0.00,2
-0.05,0.06,-1.24,2.81,-0.06,-0.61,0.00,0.00,0.00,0.00,2
-0.05,0.06,-1.24,2.87,0.06,-0.79,0.00,0.00,0.00,0.00,2
-0.06,0.06,-1.26,3.05,-0.85,-0.98,0.00,0.00,0.00,0.00,2
-0.07,0.06,-1.24,2.62,0.85,-9.52,0.00,0.00,0.00,0.00,2
-0.06,0.06,-1.24,2.87,0.18,-0.79,0.00,0.00,0.00,0.93,2
-0.06,0.06,-1.25,3.11,-0.85,0.12,0.00,0.00,0.00,0.00,2
-0.05,0.06,-1.24,2.81,0.55,-0.92,0.00,0.00,0.00,0.00,2
-0.05,0.06,-1.24,2.69,0.24,-0.73,0.00,0.00,0.00,0.00,2
-0.05,0.06,-1.25,2.81,0.43,-0.79,0.00,0.00,0.00,0.71,2
-0.05,0.06,-1.24,2.62,1.65,-0.92,0.00,0.00,0.00,0.71,2
-0.05,0.06,-1.24,2.93,0.37,-0.85,0.00,0.00,0.00,0.69,2
-0.06,0.07,-1.25,2.75,0.31,-0.79,0.00,0.00,0.00,0.72,2
-0.05,0.06,-1.24,2.75,0.73,-0.79,0.00,0.00,0.00,0.77,2
-0.05,0.06,-1.24,3.17,-1.10,-0.85,0.00,0.00,0.00,0.09,2
-0.05,0.06,-1.25,2.56,0.06,-0.67,0.00,0.00,0.00,0.00,2
-0.05,0.06,-1.25,3.11,0.00,-0.73,0.00,0.00,0.00,0.00,2
-0.04,0.06,-1.25,2.93,-0.12,-0.73,0.00,0.00,0.00,0.00,2
-0.05,0.06,-1.24,2.93,0.06,-0.98,0.00,0.00,0.00,0.00,2
-0.05,0.06,-1.25,2.62,0.12,-0.79,0.00,0.00,0.00,0.00,2
-0.05,0.06,-1.25,2.81,0.31,-0.67,0.00,0.00,0.00,0.00,2
-0.05,0.06,-1.24,2.93,0.37,-0.79,0.00,0.00,0.00,0.00,2
-0.05,0.05,-1.25,2.99,0.12,-0.73,0.00,0.00,0.00,0.00,2
-0.05,0.06,-1.24,2.75,0.85,-0.92,0.00,0.00,0.00,0.00,2
-0.05,0.06,-1.24,2.87,0.24,-0.85,0.00,0.00,0.00,0.00,2
-0.06,0.05,-1.24,2.93,-0.31,-0.67,0.00,0.00,0.00,0.00,2
-0.05,0.06,-1.24,3.54,-2.20,-0.73,0.00,0.00,0.00,0.00,2
-0.04,0.06,-1.23,4.15,2.87,-0.92,0.00,0.00,0.00,0.00,2
-0.04,0.07,-1.25,2.75,0.06,-4.88,0.00,0.00,0.00,0.00,2
-0.05,0.06,-1.24,2.87,0.12,-0.73,0.00,0.00,0.00,0.00,2
-0.04,0.06,-1.24,2.44,-0.18,-1.04,0.00,0.00,0.00,0.00,2
-0.05,0.06,-1.24,3.05,0.37,-0.43,0.00,0.00,0.00,0.00,2
-0.05,0.05,-1.24,0.73,-5.98,1.10,0.00,0.00,0.00,0.00,2
-0.05,0.06,-1.24,2.93,0.12,-0.92,0.00,0.00,0.00,0.00,2
-0.04,0.06,-1.25,2.44,-1.10,0.31,0.00,0.00,0.00,0.00,2
-0.04,0.06,-1.24,3.72,1.59,-0.79,0.00,0.00,0.00,0.00,2
-0.04,0.06,-1.24,3.36,0.61,-0.85,0.00,0.00,0.00,0.00,2
-0.07,0.04,-1.25,4.33,-4.03,-0.12,0.00,0.00,0.00,0.00,2
-0.06,0.07,-1.25,2.99,-2.69,-0.92,0.00,0.00,0.00,0.00,2
-0.08,0.03,-1.25,3.30,-0.98,16.30,0.00,0.00,0.00,0.00,2
-0.08,0.03,-1.24,2.87,0.06,-3.23,0.00,0.00,0.00,0.00,2
-0.05,0.05,-1.25,7.63,8.48,2.44,0.00,0.00,0.00,0.00,2
-0.03,0.05,-1.08,2.81,3.72,1.95,0.00,0.00,0.00,0.00,2
-0.05,0.06,-1.24,2.87,0.12,-0.67,0.00,0.00,0.00,0.00,2
-0.04,0.06,-1.24,3.05,0.24,-0.92,0.00,0.00,0.00,0.00,2
-0.04,0.06,-1.25,2.99,0.06,-0.43,0.00,0.00,0.00,0.00,2
-0.04,0.06,-1.24,2.99,-0.12,-0.67,0.00,0.00,0.00,0.00,2
-0.04,0.06,-1.24,3.30,0.98,-0.79,0.00,0.00,0.00,0.00,2
-0.03,0.07,-1.21,6.77,9.77,-0.43,0.00,0.00,0.00,0.00,2
-0.04,0.06,-1.26,-2.01,-3.42,2.44,0.00,0.00,0.00,0.00,2
-0.04,0.05,-1.24,1.46,-3.05,-1.22,0.00,0.00,0.00,0.00,2
-0.05,0.07,-1.25,2.01,-1.65,-4.33,0.00,0.00,0.00,0.00,2
-0.05,0.07,-1.25,2.56,-0.37,-0.49,0.00,0.00,0.00,0.00,2
-0.05,0.06,-1.25,-0.06,0.31,-3.72,0.00,0.00,0.00,0.00,2
-0.07,0.04,-1.26,3.66,-0.37,-0.37,0.00,0.00,0.00,0.00,2
-0.04,0.05,-1.24,4.70,3.11,-0.43,0.00,0.00,0.00,0.00,2
-0.04,0.06,-1.24,2.87,0.00,-0.85,0.00,0.00,0.00,0.00,2
-0.03,0.05,-1.25,3.66,1.34,0.00,0.00,0.00,0.00,0.00,2
-0.02,0.05,-1.25,2.81,-0.24,-0.73,0.00,0.00,0.00,0.00,2
-0.02,0.05,-1.22,6.77,7.75,-0.61,0.00,0.00,0.00,0.00,2
-0.04,0.06,-1.25,2.08,-1.22,-0.67,0.00,0.00,0.00,0.00,2
-0.04,0.06,-1.24,2.26,-1.46,-0.73,0.00,0.00,0.00,0.00,2
-0.04,0.06,-1.24,3.30,0.73,-0.61,0.00,0.00,0.00,0.00,2
-0.04,0.06,-1.25,4.15,2.38,-0.85,0.00,0.00,0.00,0.00,2
-0.04,0.06,-1.25,1.89,-1.53,-2.08,0.00,0.00,0.00,0.00,2
-0.05,0.06,-1.24,2.81,-0.12,-0.67,0.00,0.00,0.00,0.00,2
-0.04,0.05,-1.23,1.89,-2.08,-0.67,0.00,0.00,0.00,0.00,2
-0.05,0.07,-1.25,3.36,-1.46,-0.79,0.00,0.00,0.00,0.00,2
-0.05,0.06,-1.24,2.69,0.92,-0.67,0.00,0.00,0.00,0.00,2
-0.05,0.06,-1.24,3.11,-0.37,-0.67,0.00,0.00,0.00,0.00,2
-0.05,0.06,-1.25,2.93,0.31,-0.92,0.00,0.00,0.00,0.00,2
-0.03,0.06,-1.23,-0.98,12.27,-7.20,0.00,0.00,0.00,0.00,2
-0.05,0.06,-1.25,3.11,-0.98,-0.98,0.00,0.00,0.00,0.00,2
-0.02,0.10,-1.20,5.31,5.92,5.74,0.00,0.00,0.00,0.00,2
-0.04,0.06,-1.24,2.87,0.06,-1.10,0.00,0.00,0.00,0.00,2
0.04,0.03,-1.10,6.59,9.58,6.04,0.00,0.00,0.00,0.00,2
-0.04,0.07,-1.24,3.17,-0.24,1.77,0.00,0.00,0.00,0.00,2
-0.05,0.06,-1.24,2.99,0.31,-0.67,0.00,0.00,0.00,0.00,2
-0.04,0.08,-1.26,3.11,-0.37,4.88,0.00,0.00,0.00,0.00,2
-0.04,0.07,-1.25,2.81,0.12,-1.40,0.00,0.00,0.00,0.00,2
-0.03,0.06,-1.24,-0.12,-5.25,-1.16,0.00,0.00,0.00,0.00,2
-0.03,0.02,-1.25,0.06,1.04,2.75,0.00,0.00,0.00,0.00,2
-0.04,0.01,-1.21,9.64,0.24,1.40,0.00,0.00,0.00,0.00,2
-0.02,0.03,-1.23,4.88,0.37,0.79,0.00,0.00,0.00,0.00,2
-0.05,0.06,-1.25,2.93,0.18,-1.89,0.00,0.00,0.00,0.00,2
-0.05,0.06,-1.24,4.39,-4.82,-0.49,0.00,0.00,0.00,0.00,2
-0.08,0.02,-1.31,-5.25,-1.89,-9.03,0.00,0.00,0.00,0.00,2
-0.03,0.06,-1.24,2.38,-0.85,-2.08,0.00,0.00,0.00,0.00,2
-0.06,0.06,-1.24,2.69,2.44,-0.55,0.00,0.00,0.00,0.00,2
-0.06,0.10,-1.23,2.81,-0.43,5.19,0.00,0.00,0.00,0.00,2
-0.04,0.05,-1.26,3.42,-0.55,-3.60,0.00,0.00,0.00,0.00,2
-0.04,0.08,-1.25,2.44,-0.18,-4.70,0.00,0.00,0.00,0.00,2
-0.05,0.06,-1.25,3.05,0.31,0.24,0.00,0.00,0.00,0.00,2
-0.07,0.05,-1.24,1.83,3.23,-0.61,0.00,0.00,0.00,0.00,2
-0.09,0.01,-1.21,2.20,-0.85,1.10,0.00,0.00,0.00,0.00,2
-0.06,0.05,-1.25,1.53,-3.66,2.08,0.00,0.00,0.00,0.00,2
-0.07,0.05,-1.25,2.69,-0.24,-10.07,0.00,0.00,0.00,0.00,2
-0.07,0.06,-1.24,0.49,6.04,-0.24,0.00,0.00,0.00,0.05,2
-0.08,0.05,-1.24,4.52,-3.72,-3.17,0.00,0.00,0.00,0.05,2
-0.04,0.06,-1.23,2.75,1.77,-0.92,0.00,0.00,0.00,0.00,2
-0.06,0.06,-1.25,2.99,-0.79,0.06,0.00,0.00,0.00,0.00,2
-0.05,0.05,-1.25,2.93,0.24,-0.85,0.00,0.00,0.00,0.00,2
-0.06,0.09,-1.26,2.56,-0.18,-7.32,0.00,0.00,0.00,0.00,2
-0.03,0.06,-1.24,3.05,0.00,-2.56,0.00,0.00,0.00,0.00,2
-0.06,0.08,-1.29,-0.61,-7.93,-1.16,0.00,0.00,0.00,0.00,2
0.03,0.20,-1.19,3.30,2.50,6.84,0.00,0.00,0.00,0.00,2
-0.06,0.08,-1.23,2.38,-0.92,-1.46,0.00,0.00,0.00,0.00,2
-0.01,0.06,-1.26,2.50,3.30,-12.94,0.00,0.00,0.00,0.00,2
-0.09,-0.12,-1.04,-22.83,33.87,-11.29,0.00,0.00,0.00,0.00,2
-0.07,0.04,-1.25,-0.92,-0.73,-1.65,0.00,0.00,0.00,0.00,2
-0.06,0.01,-1.27,-2.75,-2.56,2.08,0.00,0.00,0.00,0.00,2
-0.06,0.01,-1.26,1.28,2.38,-3.85,0.00,0.00,0.00,0.00,2
-0.07,0.01,-1.20,2.26,1.77,-2.26,0.00,0.00,0.00,0.00,2
-0.07,0.06,-1.24,2.93,0.49,-1.83,0.00,0.00,0.00,0.00,2
-0.06,0.06,-1.25,3.23,2.14,-0.73,0.00,0.00,0.00,0.00,2
-0.06,0.13,-1.25,-7.87,0.92,-3.30,0.00,0.00,0.00,0.00,2
-0.05,0.06,-1.24,2.93,-0.06,-0.73,0.00,0.00,0.00,0.00,2
-0.02,0.04,-1.25,0.18,9.83,8.73,0.00,0.00,0.00,0.00,2
-0.02,0.10,-1.26,-4.70,3.60,-6.96,0.00,0.00,0.00,0.00,2
-0.03,0.09,-1.24,3.17,-0.92,14.10,0.00,0.00,0.00,0.00,2
0.01,0.06,-1.21,8.91,11.23,3.85,0.00,0.00,0.00,0.00,2
-0.06,0.04,-1.24,1.83,9.64,0.06,0.00,0.00,0.00,0.05,2
-0.07,0.04,-1.24,-8.00,0.67,-3.97,0.00,0.00,0.00,0.00,2
-0.07,0.05,-1.28,1.59,2.93,-1.22,0.00,0.00,0.00,0.00,2
-0.07,0.06,-1.24,3.54,-1.46,-0.67,0.00,0.00,0.00,0.00,2
-0.06,0.06,-1.25,1.65,0.73,-0.67,0.00,0.00,0.00,0.00,2
-0.04,0.07,-1.24,4.82,-12.76,11.66,0.00,0.00,0.00,0.00,2
-0.07,0.03,-1.23,3.17,-1.40,-3.36,0.00,0.00,0.00,0.00,2
-0.05,0.05,-1.24,2.93,0.00,-0.85,0.00,0.00,0.00,0.00,2
-0.06,0.06,-1.25,2.69,0.12,-0.55,0.00,0.00,0.00,0.00,2
-0.06,0.06,-1.24,2.87,0.00,-0.73,0.00,0.00,0.00,0.00,2
-0.06,0.06,-1.25,2.99,0.18,-0.98,0.00,0.00,0.00,0.00,2
-0.06,0.05,-1.25,2.75,0.06,-0.67,0.00,0.00,0.00,0.00,2
-0.05,0.06,-1.25,3.23,0.12,-0.67,0.00,0.00,0.00,0.00,2
-0.06,0.06,-1.24,2.87,0.00,-0.67,0.00,0.00,0.00,0.00,2
-0.05,0.06,-1.24,2.87,0.43,-0.85,0.00,0.00,0.00,0.00,2
-0.06,0.06,-1.24,2.93,-0.06,-0.61,0.00,0.00,0.00,0.00,2
-0.06,0.06,-1.25,2.99,0.00,-0.98,0.60,0.00,0.00,0.00,2
-0.05,0.06,-1.25,2.81,-0.31,-0.79,0.20,0.00,0.00,0.00,2
-0.06,0.06,-1.25,3.11,-0.06,-0.92,0.00,0.00,0.00,0.00,2
-0.06,0.05,-1.24,2.99,0.06,-0.61,0.00,0.00,0.00,0.76,2
-0.06,0.06,-1.24,2.69,0.06,-0.79,0.00,0.00,0.00,0.79,2
-0.06,0.05,-1.24,2.62,0.18,-0.67,0.00,0.00,0.00,0.08,2
-0.06,0.06,-1.24,2.99,0.31,-0.49,0.00,0.17,0.00,0.00,2
-0.06,0.05,-1.24,2.69,-0.18,-0.61,0.00,0.62,0.00,0.00,2
-0.06,0.06,-1.25,2.93,-0.06,-0.67,0.00,0.59,0.00,0.00,2
-0.05,0.06,-1.24,2.81,0.00,-0.79,0.00,0.37,0.00,0.00,2
-0.05,0.06,-1.25,2.87,-0.06,-0.49,0.00,0.00,0.00,0.00,2
-0.05,0.06,-1.24,2.93,-0.06,-0.79,0.00,0.00,0.00,0.00,2
-0.06,0.06,-1.24,2.62,-0.18,-0.55,0.00,0.00,0.00,0.00,2
-0.05,0.06,-1.25,2.87,-0.06,-0.85,0.00,0.00,0.00,0.00,2
-0.06,0.06,-1.25,2.81,0.31,-0.92,0.00,0.00,0.00,0.00,2
-0.05,0.06,-1.25,2.87,0.00,-0.67,0.00,0.00,0.00,0.00,2
-0.05,0.06,-1.25,2.93,0.06,-0.73,0.00,0.00,0.00,0.00,2
-0.04,0.05,-1.23,2.93,0.06,-0.85,0.00,0.00,0.00,0.00,2
-0.05,0.06,-1.25,2.93,-0.24,-0.73,0.00,0.00,0.00,0.00,2
-0.06,0.06,-1.25,2.99,-0.06,-0.85,0.00,0.00,0.00,0.00,2
-0.05,0.06,-1.25,2.75,0.06,-0.79,0.00,0.00,0.00,0.00,2
-0.06,0.06,-1.24,2.99,0.43,-0.79,0.00,0.00,0.00,0.00,2
-0.05,0.06,-1.24,2.93,-0.18,-0.55,0.00,0.00,0.00,0.00,2
0.00,0.07,-1.30,0.12,-4.27,-4.82,0.00,0.00,0.00,0.00,2
-0.06,0.05,-1.22,2.50,0.43,-3.42,0.00,0.00,0.00,0.00,2
-0.03,0.04,-1.25,-0.43,-5.80,-0.92,0.00,0.00,0.00,0.00,2
-0.04,0.06,-1.25,-1.22,-7.87,-1.22,0.00,0.00,0.00,0.00,2
-0.02,0.05,-1.23,8.48,10.44,-1.22,0.00,0.00,0.00,0.00,2
0.01,0.03,-1.19,4.88,3.11,-0.73,0.00,0.00,0.00,0.00,2
-0.03,0.06,-1.26,2.20,-0.73,-2.26,0.00,0.00,0.00,0.00,2
-0.02,0.04,-1.26,2.87,0.55,-0.55,0.00,0.00,0.00,0.00,2
-0.02,0.05,-1.26,2.38,-0.79,-0.85,0.00,0.00,0.00,0.00,2
-0.02,0.04,-1.23,3.17,0.79,-0.73,0.00,0.00,0.00,0.00,2
-0.01,0.03,-1.27,5.55,4.15,6.41,0.00,0.00,0.00,0.00,2
-0.06,0.07,-1.31,-2.93,-11.17,-0.85,0.00,0.00,0.00,0.00,2
0.00,0.04,-1.20,3.66,2.20,-0.79,0.00,0.00,0.00,0.00,2
-0.02,0.05,-1.24,3.11,0.37,-0.73,0.00,0.00,0.00,0.00,2
-0.04,0.06,-1.26,5.86,5.92,-1.53,0.00,0.00,0.00,0.00,2
-0.03,0.05,-1.24,-1.71,-8.30,-0.85,0.00,0.00,0.00,0.00,2
0.02,0.08,-1.21,3.85,0.73,10.01,0.00,0.00,0.00,0.00,2
-0.04,0.06,-1.25,4.82,5.37,-7.69,0.00,0.00,0.00,0.00,2
-0.05,0.06,-1.24,2.56,0.73,-0.73,0.00,0.00,0.00,0.00,2
-0.05,0.05,-1.24,3.17,1.77,-5.43,0.00,0.00,0.00,0.00,2
-0.06,0.05,-1.24,2.75,1.95,-1.83,0.00,0.00,0.00,0.00,2
-0.05,0.06,-1.24,3.23,0.85,0.06,0.00,0.00,0.00,0.00,2
-0.02,0.04,-1.25,3.66,1.10,-0.79,0.00,0.00,0.00,0.00,2
-0.03,0.09,-1.26,0.98,-4.52,-0.92,0.00,0.00,0.00,0.00,2
-0.06,0.06,-1.24,3.30,0.73,-0.61,0.00,0.00,0.00,0.00,2
-0.05,0.06,-1.24,2.14,1.65,-0.73,0.00,0.00,0.00,0.00,2
-0.07,0.05,-1.27,3.30,-1.10,1.04,0.00,0.00,0.00,0.00,2
-0.07,0.05,-1.25,2.81,-0.06,-4.03,0.00,0.00,0.00,0.00,2
-0.06,0.06,-1.26,3.17,0.31,-8.54,0.00,0.00,0.08,0.00,2
-0.06,0.04,-1.25,4.64,-0.85,1.22,0.00,0.00,0.00,0.00,2
-0.03,0.06,-1.25,0.37,-4.58,0.18,0.00,0.00,0.00,0.00,2
-0.06,0.07,-1.26,2.99,0.55,1.04,0.00,0.00,0.00,0.00,2
-0.06,0.06,-1.24,4.64,-5.68,0.43,0.00,0.00,0.00,0.00,2
-0.05,0.08,-1.36,-1.28,-1.04,-1.77,0.00,0.00,0.00,0.00,2
-0.06,0.08,-1.25,3.05,-2.08,9.22,0.00,0.00,0.00,0.00,2
-0.03,0.04,-1.24,0.67,-3.42,-4.09,0.00,0.00,0.06,0.00,2
-0.00,0.04,-1.24,8.06,13.31,-0.18,0.00,0.00,0.00,0.00,2
-0.05,0.07,-1.24,8.18,10.62,-12.27,0.00,0.00,0.00,0.00,2
-0.04,0.04,-1.24,3.30,0.92,-1.16,0.00,0.00,0.00,0.00,2
-0.05,0.07,-1.24,3.11,-0.06,-2.93,0.00,0.00,0.00,0.00,2
-0.05,0.05,-1.23,3.60,-0.98,2.20,0.00,0.00,0.00,0.00,2
-0.04,0.08,-1.25,0.49,7.02,-4.09,0.00,0.00,0.00,0.00,2
-0.05,0.06,-1.25,2.62,0.43,-0.92,0.00,0.00,0.00,0.00,2
-0.05,0.06,-1.25,2.99,-0.31,-0.73,0.00,0.00,0.00,0.00,2
-0.05,0.06,-1.24,3.42,-1.34,-1.46,0.00,0.00,0.00,0.00,2
-0.05,0.06,-1.24,3.23,-1.65,-0.73,0.00,0.00,0.00,0.00,2
-0.05,0.06,-1.24,3.11,0.06,-0.79,0.00,0.00,0.00,0.00,2
-0.06,0.06,-1.27,2.44,-1.71,-0.85,0.00,0.00,0.00,0.00,2
-0.04,0.06,-1.24,3.23,0.37,0.73,0.00,0.00,0.00,0.00,2
-0.06,0.06,-1.26,3.54,-2.38,-1.16,0.00,0.00,0.00,0.00,2
-0.02,0.05,-1.23,8.91,11.17,-0.67,0.00,0.00,0.00,0.00,2
-0.09,0.04,-1.25,3.17,-2.75,-4.76,0.00,0.00,0.00,0.00,2
-0.10,0.04,-1.28,-12.27,0.92,-13.12,0.00,0.00,0.00,0.00,2
-0.08,0.05,-1.26,5.07,-6.59,6.59,0.00,0.00,0.00,0.00,2
-0.05,0.05,-1.25,2.99,-1.83,-3.78,0.00,0.00,0.00,0.00,2
-0.02,0.03,-1.33,0.85,-4.88,6.04,0.00,0.00,0.00,0.00,2
-0.07,0.01,-1.22,0.31,-6.16,2.87,0.00,0.00,0.00,0.05,2
-0.05,0.04,-1.24,-3.72,5.19,-5.49,0.00,0.00,0.00,0.06,2
-0.06,0.06,-1.24,2.93,0.18,-0.92,0.00,0.00,0.00,0.07,2
-0.04,0.06,-1.25,-0.98,-7.14,-1.34,0.00,0.00,0.00,0.07,2
-0.06,0.05,-1.25,4.03,-4.70,0.92,0.00,0.00,0.00,0.00,2
-0.03,0.05,-1.25,2.69,-0.18,-0.73,0.00,0.00,0.00,0.00,2
-0.05,0.07,-1.25,3.05,2.44,-12.94,0.00,0.00,0.00,0.00,2
-0.04,0.07,-1.21,9.40,0.24,1.16,0.00,0.00,0.00,0.00,2
-0.06,0.06,-1.23,2.44,5.31,-0.55,0.00,0.00,0.00,0.00,2
-0.12,-0.05,-1.27,2.75,-0.24,-2.93,0.00,0.00,0.00,0.00,2
-0.06,0.06,-1.24,2.62,0.55,-2.38,0.00,0.00,0.00,0.00,2
-0.04,0.05,-1.23,3.05,-0.18,5.92,0.00,0.00,0.00,0.00,2
-0.06,0.06,-1.25,3.11,-2.69,-0.98,0.00,0.00,0.00,0.00,2
-0.05,0.07,-1.24,2.99,0.12,-1.53,0.00,0.00,0.00,0.00,2
-0.06,0.06,-1.24,2.93,-0.31,-0.67,0.00,0.00,0.00,0.00,2
-0.08,-0.00,-1.22,6.84,-1.95,0.06,0.00,0.00,0.00,0.00,2
-0.04,0.06,-1.23,3.17,2.44,-0.55,0.00,0.00,0.00,0.00,2
-0.03,0.05,-1.25,2.44,-0.61,-0.73,0.00,0.00,0.00,0.00,2
-0.10,0.05,-1.30,4.33,-5.98,-1.83,0.00,0.00,0.00,0.00,2
-0.01,0.48,-1.17,43.09,-5.80,6.77,0.00,0.00,0.00,0.00,2
0.01,0.85,-0.78,11.41,-3.11,0.67,0.00,0.00,0.00,0.00,2
-0.00,0.80,-0.83,-75.26,9.03,-4.46,0.00,0.00,0.00,0.00,2
0.09,0.09,-1.26,4.58,-6.10,-12.82,0.00,0.00,0.00,0.00,2
-0.04,0.06,-1.24,4.33,3.11,-0.67,0.00,0.00,0.00,0.00,2
-0.02,0.07,-1.22,1.46,-3.23,-0.43,0.00,0.00,0.00,0.00,2
-0.02,0.05,-1.23,3.05,0.49,-0.73,0.00,0.00,0.00,0.00,2
-0.06,0.06,-1.27,1.83,-2.69,0.55,0.00,0.00,0.00,0.00,2
-0.05,0.06,-1.26,3.78,1.77,-0.61,0.00,0.00,0.00,0.00,2
-0.06,0.03,-1.23,3.30,0.43,-0.43,0.00,0.00,0.00,0.00,2
-0.07,0.05,-1.29,0.98,-5.37,3.36,0.00,0.00,0.00,0.00,2
0.02,0.08,-1.26,2.50,-1.10,-10.99,0.00,0.00,0.00,0.00,2
-0.08,0.03,-1.24,5.55,-2.87,-1.59,0.00,0.00,0.11,0.00,2
-0.07,0.05,-1.25,2.14,0.31,-1.28,0.00,0.00,0.08,0.00,2
-0.06,0.04,-1.27,6.47,-0.18,3.05,0.00,0.00,0.00,0.00,2
-0.05,0.06,-1.24,2.93,0.24,-0.92,0.00,0.00,0.09,0.00,2
-0.07,0.06,-1.25,2.75,0.18,-6.35,0.00,0.00,0.13,0.00,2
-0.04,0.07,-1.23,0.79,6.47,-5.19,0.00,0.00,0.15,0.00,2
-0.01,0.04,-1.17,4.82,3.48,-0.92,0.00,0.00,0.13,0.00,2
0.00,0.03,-1.22,4.76,5.00,-1.83,0.00,0.00,0.13,0.00,2
-0.01,0.04,-1.20,9.52,12.27,-0.85,0.00,0.00,0.10,0.00,2
-0.07,0.06,-1.25,3.48,8.61,-1.16,0.00,0.00,0.09,0.00,2
-0.04,0.05,-1.25,2.99,0.43,2.32,0.00,0.00,0.06,0.00,2
-0.05,0.10,-1.29,-1.40,-10.25,-0.37,0.00,0.00,0.00,0.00,2
-0.01,0.01,-1.22,3.72,-0.79,-1.71,0.00,0.00,0.00,0.00,2
0.00,0.05,-1.24,2.69,1.34,-6.04,0.00,0.00,0.00,0.00,2
-0.05,0.08,-1.25,3.23,-0.79,9.28,0.00,0.00,0.00,0.00,2
-0.07,0.05,-1.19,22.28,39.43,-20.26,0.00,0.00,0.00,0.00,2
-0.05,0.07,-1.25,2.32,1.46,-2.38,0.00,0.00,0.00,0.00,2
-0.05,0.06,-1.25,2.62,0.37,-0.79,0.00,0.00,0.00,0.00,2
-0.05,0.06,-1.25,2.93,-0.24,-0.67,0.00,0.00,0.00,0.00,2
-0.05,0.05,-1.25,3.72,0.00,6.41,0.00,0.00,0.00,0.00,2
-0.05,0.06,-1.24,2.87,0.00,-0.73,0.00,0.00,0.00,0.00,2
-0.06,0.07,-1.23,2.93,0.12,-0.85,0.00,0.00,0.00,0.00,2
-0.05,0.06,-1.25,3.05,0.24,-0.67,0.00,0.00,0.00,0.00,2
-0.05,0.06,-1.24,2.81,-0.24,-0.85,0.00,0.00,0.00,0.00,2
-0.05,0.03,-1.19,2.26,-0.79,-7.87,0.00,0.00,0.00,0.00,2
-0.03,0.05,-1.23,8.61,10.50,-0.49,0.00,0.00,0.00,0.00,2
-0.01,0.03,-1.20,3.23,0.73,-0.67,0.00,0.00,0.00,0.00,2
-0.04,0.07,-1.23,-0.49,-7.14,0.55,0.00,0.00,0.00,0.00,2
-0.04,0.04,-1.27,2.14,-1.53,-1.46,0.00,0.00,0.00,0.00,2
-0.03,0.05,-1.24,2.93,-0.06,-2.20,0.00,0.00,0.00,0.00,2
-0.00,0.04,-1.25,3.36,0.98,-0.73,0.00,0.00,0.00,0.00,2
-0.04,0.05,-1.23,3.36,0.37,-0.55,0.00,0.00,0.00,0.00,2
-0.03,0.09,-1.24,2.93,0.06,6.96,0.00,0.00,0.00,0.00,2
-0.05,0.06,-1.25,2.87,0.00,-0.67,0.00,0.00,0.00,0.00,2
-0.05,0.05,-1.24,2.69,0.18,-7.08,0.00,0.00,0.00,0.00,2
-0.04,0.02,-1.26,2.75,-0.67,-5.43,0.00,0.00,0.00,0.00,2
-0.05,0.06,-1.25,2.99,-0.18,-0.61,0.00,0.00,0.00,0.00,2
-0.05,0.06,-1.25,2.87,-0.12,-0.73,0.00,0.00,0.00,0.00,2
-0.05,0.06,-1.24,2.01,3.42,-2.38,0.00,0.00,0.00,0.00,2
-0.05,0.06,-1.24,2.69,0.12,-0.85,0.00,0.00,0.00,0.00,2
-0.05,0.06,-1.24,2.81,0.12,-0.67,0.00,0.00,0.00,0.00,2
-0.05,0.06,-1.24,2.69,0.00,-0.79,0.00,0.00,0.00,0.00,2
-0.06,0.05,-1.25,4.27,-4.88,-0.85,0.00,0.00,0.00,0.00,2
-0.06,0.06,-1.25,2.93,0.55,-0.79,0.00,0.00,0.00,0.00,2
-0.05,0.06,-1.24,2.81,0.43,-0.61,0.00,0.00,0.00,0.00,2
-0.05,0.06,-1.25,2.87,0.12,-0.55,0.00,0.00,0.00,0.00,2
-0.05,0.06,-1.24,3.17,0.00,-0.79,0.00,0.00,0.00,0.00,2
-0.04,0.05,-1.24,3.05,-0.12,-0.49,0.00,0.00,0.00,0.00,2
-0.05,0.06,-1.25,3.05,-0.06,-0.79,0.00,0.00,0.00,0.00,2
-0.05,0.06,-1.24,2.93,-0.06,-0.55,0.00,0.00,0.00,0.00,2
-0.05,0.06,-1.26,-1.59,-8.79,-0.73,0.00,0.00,0.00,0.00,2
