accelX,accelY,accelZ,gyroX,gyroY,gyroZ,fsr1,fsr2,fsr3
-0.944750178,0.041942332,-0.391475711,-25.82136264,14.73500179,-18.9147221,0,0,0
-0.667223011,0.038985924,-0.858491885,10.78218624,1.493446439,11.01132875,0,0,0
-1.030696581,0.01916824,-0.414602816,-35.92743086,-8.976118591,-4.971137316,0.164252455,0.327442227,0.049591503
-0.955665068,0,-0.537077365,-12.06495558,-22.49524487,-0.813512598,0.348613718,0.232210308,0
-0.796407707,-0.01910135,-1.044179901,134.922221,-118.3762665,69.31124364,0,0,0
-0.905792178,0.174004152,-0.05196934,-36.41444386,-29.89565515,0,0,0,0.518358332
-0.968929534,-0.193563399,-0.35982451,57.07733408,-22.40108448,1.970589363,0,0,0.760009259
-0.9980373,-0.080912694,-0.630808445,20.04224995,-34.76217322,-8.106228884,0.281934343,0,0
-0.823116934,-0.278700842,-0.735145735,-21.00675382,-15.77831835,7.850424205,0,0,0
-1.024670013,0.246134425,-0.07264091,-2.73414548,-24.59557245,18.79632492,0,0,0.740817376
-0.935169142,-0.156192658,-0.436865854,11.58883029,-14.2978768,4.694166809,0,0,0.7712484
-0.903029313,-0.038856273,-0.540156253,-0.424271067,-14.06265337,-6.967264719,0.327756793,0.266573912,0
-0.96312929,0.038832105,-0.702549451,1.794872766,-55.20017098,-11.37147841,0,0,0
-0.911944415,0.319267295,-0.800594566,-100.731896,150.6772775,-25.39610572,0,0,0
-1.02066073,-0.019466775,-0.270235499,30.93264864,-27.90903422,17.17822787,0,0,1.17478133
-1.047372776,-0.077887201,-0.482610035,10.81344287,-14.2476616,-1.128022431,0,0.088082488,0.405553264
-1.005818915,0.020305041,-0.68644225,6.512468472,-31.73340666,-14.12875365,0,0,0
-0.979251418,0.092508437,-0.578973398,-46.54506216,10.81782741,6.732844926,0,0,0
-0.973416975,0.168326196,-0.077210044,-65.23959977,-23.77663381,-15.66857984,0,0,0.629532563
-1.018292265,-0.13312818,-0.41490673,3.575499001,-11.96934409,-10.66458858,0,0,0.927239128
-0.953213922,-0.06800575,-0.541311978,12.92110498,-4.434042962,-0.230276574,0.405116612,0.298407743,0
-0.900260061,0,-0.742479933,5.922374781,-37.14292213,-15.49568418,0.088683235,0,0
-1.227204065,-0.029159213,-1.097337579,-94.38735684,217.3646512,-2.458151098,0,0,0
-1.04971535,-0.076392033,-0.165239051,-20.37838962,-23.59670145,2.308334808,0,0,0.906801787
-0.99204317,-0.04792634,-0.427755508,-5.591054041,-9.246982015,-2.823567088,0.271891166,0.040626949,0
-0.913893203,-0.029400949,-0.614722548,4.07907447,-15.62863939,-0.352667463,0.350991363,0.191155898,0
-1.074718965,-0.133712346,-0.222804277,35.60718352,-36.93939772,24.14275907,0,0,0.891923651
-0.961677964,-0.172397571,-0.397596852,22.03394169,-17.28181463,13.08002366,0,0,0.949806738
-0.99832309,-0.077304189,-0.488977647,10.92434353,-16.81511711,1.664862379,0.258131571,0.15328949,0
-0.915510859,0.009789151,-0.735441415,11.42369565,-37.62738416,-12.36636395,0.040173583,0,0
-0.938511764,-0.010125723,-0.752199781,9.227706207,-36.74831937,-9.342222752,0,0.107994639,0
-0.954982655,0.261144834,-0.427673408,6.533128947,195.9631848,-32.90425958,0,0,0
-0.976424984,-0.030373103,-0.206038625,-36.38741254,-21.85718721,14.76847402,0,0,0.949568909
-1.022609141,-0.105936357,-0.410612209,6.261196786,-12.07978402,-5.374623426,0,0,0.780206471
-0.978464241,0,-0.622443197,5.029376961,-19.67599131,-9.12032651,0.324251092,0.238548689,0
-0.856686499,0.122119444,-0.687680546,6.841233182,-51.31375502,-11.22813578,0,0,0
-0.721306095,0.330065431,-0.870984974,127.0388441,51.02147033,26.34535201,0,0,0
-0.97669386,-0.240785293,-0.314840172,4.350629402,-15.05819794,-2.349383626,0,0,1.166863556
-1.027564282,-0.05117619,-0.433138848,-8.649739096,-8.276684208,-11.51405686,0.162114903,0,0.377791504
-0.901270999,0.057861131,-0.680890033,-28.49285502,-18.62948208,-21.01104342,0.143432826,0.213750943,0
-0.822187743,0.00984232,-0.805023774,16.36074641,-40.34056758,2.265626654,0,0,0
-0.763053918,0.235495846,-0.84072803,-23.35347259,112.1142181,-3.948100298,0,0,0
-0.971532596,-0.091457372,-0.273646716,35.03272829,-19.24181021,21.39354523,0,0,0.973506291
-1.032167844,-0.091120753,-0.375019852,-7.502056894,-9.054924651,4.172172828,0,0,1.041015325
-1.050505659,-0.087236666,-0.463806702,5.18881167,-5.120450058,-4.577686409,0.192475051,0.278857047,0.267985142
-0.951317333,-0.048964242,-0.586717825,-0.300972655,-16.00550125,-8.950035284,0.3607086,0.403892358,0
-0.974412764,0.146587872,-0.713376955,26.7122056,-80.61906188,3.425305277,0,0,0
-0.581131749,0.186405866,-0.693532903,33.01172167,-4.073255257,22.76005094,0,0,0
-1.04947264,0.052136338,-0.148738797,-3.587175792,-16.42644255,7.213949408,0,0,0.933900076
-0.968477938,-0.068928917,-0.403830504,18.54377688,-8.869351445,4.44111493,0,0,0.661444861
-0.980213247,-0.030342744,-0.489461553,-5.045591671,-9.996011855,-1.512729789,0.287918749,0.328632228,0
-0.902495178,-0.020118435,-0.70263472,2.713298635,-18.51114219,-7.463219891,0.155270814,0.068964432,0
-1.099514379,0.15964145,-0.800070358,44.87111265,-97.84904179,25.07891867,0,0,0
-0.786488082,0.087936322,-0.162604041,-39.47305882,22.55710858,3.532734034,0,0,0.177574436
-1.022125577,-0.029374695,-0.239812911,-12.03555098,-20.46048627,7.971144978,0,0,0.932543672
-1.028049956,-0.081238286,-0.415906024,15.78569448,-11.68084289,0.739178266,0,0.112256872,0.689874525
-0.931564939,-0.072254638,-0.588531208,8.345938726,-16.86317132,0.719658999,0.332279434,0.424378154,0
-0.888078309,0.047783179,-0.757813501,14.10666894,-47.02904853,-6.022233744,0,0,0
-1.146740068,0.153670083,-0.919905283,-132.0993126,204.6432206,-32.54560984,0,0,0
-1.041929424,-0.080051902,-0.144493686,-12.10320001,-22.63323276,1.984563915,0,0,0.868969057
-0.984907765,-0.100236822,-0.340964586,9.305053189,-15.73665087,5.337354857,0,0,0.963630061
-1.048393895,-0.057908823,-0.493938832,9.96461656,-19.49960176,-3.063345099,0.183512215,0.257090989,0
-0.874540891,-0.048008321,-0.637130019,16.6660052,-24.12199751,1.538236859,0.284443789,0.114586767,0
-0.629560962,0.29391361,-0.656904117,-67.87203179,56.43004872,-51.00139083,0,0,0
-1.03119004,-0.470991153,-0.174522845,9.589033548,-28.74746199,23.55420745,0,0,0.108665101
-0.98417068,-0.072597699,-0.223152784,-10.31920452,-15.9328296,6.730062466,0,0,0.913887958
-0.97645689,-0.058067223,-0.424787998,32.42865177,-11.33057265,4.455426137,0.10875487,0.096159711,0.50056304
-0.981927924,-0.049550676,-0.595509648,-7.832113233,-18.00385738,-5.839494249,0.370664177,0.272205242,0
-0.769505489,-0.020616507,-0.887698101,32.11183898,-8.670503014,13.83679611,0,0,0
-0.965171041,0.244475104,-0.537801221,133.281317,4.64386027,38.79061211,0,0,0
-1.04852544,-0.019459484,-0.359330734,26.57957419,-20.5517866,44.10245447,0,0,0.722684101
-1.064533199,-0.125067646,-0.456583317,-9.652017857,-13.17738456,1.404573943,0.050154059,0.119234328,0.317027606
-0.959439621,0,-0.568875117,5.653107322,-20.34910165,-0.059570431,0.278268209,0.33874768,0
-0.944535776,0.038016421,-0.861788084,30.59690179,-44.41634157,2.162733165,0,0,0
-1.03515865,0.249022262,-0.651544096,18.12651296,120.243901,12.88510473,0,0,0
-1.176538859,-0.061155023,-0.193889573,-42.40619926,-9.890102021,-14.57765116,0,0,0.875695071
-1.085147309,-0.020748595,-0.108168408,-20.30736649,-1.111394104,-9.233018549,0,0,0.820887102
-1.031578763,0.030720803,-0.428198319,1.659823483,-10.18850664,-5.405420026,0,0.238428502,0.230475962
-0.938530404,0.061479271,-0.68852028,12.79841482,-36.01788595,-6.630010122,0.047949835,0.268149777,0
-0.875375806,-0.057431308,-0.866772666,34.56502951,-46.88076865,34.88242511,0,0,0
-0.986982371,0.047806574,-0.132290829,-57.24835282,-18.42873453,-6.559668614,0,0,0.413848146
-1.080533292,-0.010186123,-0.290718829,3.056306771,-12.41531563,3.230007449,0,0,0.988484447
-1.022746347,-0.0629776,-0.434603358,10.25802431,-5.96848993,0.694344385,0.111336543,0.162906017,0.40324839
-0.971389554,-0.04161771,-0.528562955,3.781046449,-16.19657917,-6.373607237,0.306438247,0.399508442,0
-0.841596466,0,-0.706148844,8.54624381,-26.28916438,0.747570877,0,0,0
-1.149431301,-0.07863112,-0.923527221,-85.44805823,206.6825179,10.3449027,0,0,0
-0.995451106,0.051850364,-0.18414225,13.26267313,-27.34988136,14.80753665,0,0,0.829436099
-0.947149719,-0.172852816,-0.368049789,-17.48597009,-13.89190163,-2.883298701,0,0,0.725648042
-1.010642798,-0.031007905,-0.545423229,15.75385999,-20.78298681,6.266799404,0.21953323,0.439400508,0
-0.929593186,0.049545696,-0.740856465,11.73211688,-21.46724947,-9.726237647,0,0,0
-1.325023446,0.040885843,-1.291119643,47.93583594,241.4472671,66.4732245,0,0,0
-1.127515572,0.09507154,-0.212168213,-18.63390936,-16.88567574,3.83282529,0,0,0.914976131
-1.042267356,-0.061192943,-0.438542847,49.33926954,-7.122937403,14.34374503,0.137640177,0.130605885,0.405285089
-0.887876699,-0.067568862,-0.582211284,-3.165701018,-25.92528466,-2.272294128,0.305248174,0,0
-0.87308127,0.07037051,-0.82812083,4.539799355,-43.17845491,-11.85979953,0,0,0
-1.193259476,0.130383947,-0.813034274,114.7788569,230.5614239,31.45452407,0,0,0
-1.055338581,0.010057875,-0.206994055,-54.94926185,-1.237586725,-10.11831009,0,0,0.652490518
-0.925775227,0,-0.346087319,19.24469617,-16.13393124,14.12223579,0,0,0.786657852
-0.982963847,-0.322293135,-0.416264817,-29.2625745,-9.246193847,11.31363612,0,0,0.777942903
-1.006629109,-0.07811127,-0.567294653,4.137065831,-16.46527931,2.607046069,0.252461386,0.23232243,0
-0.943348095,0.05013864,-0.682133289,0.244960768,-24.82983034,-8.581565364,0,0,0
-0.711468308,0.149537975,-0.453570328,-88.26969536,160.6264759,-53.01268953,0,0,0
-1.051216258,0.020943183,-0.138502505,37.32123389,-28.08474606,17.68437197,0,0,0.532139326
-1.030003458,0,-0.351203385,-17.24553646,-12.63922849,-0.35871562,0,0,0.703255199
-1.031411629,-0.083158144,-0.519728391,2.352464737,-9.701679052,-6.388759098,0.145165158,0.327203418,0
-0.957295242,0.020348711,-0.648322636,5.156375237,-30.27993055,-14.2789206,0.117625203,0.299236236,0
-0.919565759,0.482584903,-0.479114951,-68.45995738,222.019274,-55.19728834,0,0,0
-1.055403822,-0.146952808,-0.174130891,11.27580913,-29.06693488,12.63438004,0,0,0.557630912
-1.059421923,-0.111757507,-0.342962257,9.508456692,-12.83407335,6.174114393,0,0,0.978234705
-0.974444912,-0.048030397,-0.487939075,27.42114085,-7.325537362,1.704657536,0.218916047,0.220108241,0.122339988
-0.930608225,-0.029451902,-0.639077951,-0.532113418,-20.23113143,-8.4540129,0.329320522,0.377943511,0
-0.787798978,0.094099305,-0.76540151,8.300474622,-33.76693327,-1.789956749,0,0,0
