accelX,accelY,accelZ,gyroX,gyroY,gyroZ,fsr1,fsr2,fsr3
-1.002858747,0.104686218,-0.397064811,3.79102571,-4.862575887,-5.821582915,0,0.102048001,0.316061174
-1.624037443,0.059854953,0.318616888,17.27748665,7.896327942,-4.973261003,0,0,0.21247897
-1.03026828,0.031169682,-0.232111974,0.187338217,-19.92088855,6.589432854,0,0,0.871509445
-1.019582214,-0.009708553,-0.437691904,-3.017629553,-9.463718075,0.474337509,0.187854597,0.450781834,0.174641986
-1.009691369,-0.080762279,-0.580186942,11.51023784,-14.54432118,3.224823735,0.336896626,0.542903689,0
-0.849548455,0.07142378,-0.792886604,-10.61364,-42.55525318,-19.67471222,0,0,0
-0.823250316,0.272292011,-0.777256709,25.95330641,69.72926062,10.6639188,0,0,0
-1.041232556,0.019182259,-0.174042812,-10.03954121,-2.766936012,7.667108599,0,0,0.695751783
-1.075806334,-0.115955687,-0.418043698,-1.958266753,-17.62106081,0.699532655,0,0.048829226,0.843306458
-0.963917878,-0.108109967,-0.534815352,6.302695457,-18.67041304,-2.563932403,0.323589213,0.159816851,0
-0.906279042,-0.041118084,-0.710611028,-13.39801347,-18.50016679,-11.29543667,0,0,0
-0.744719623,-0.114291403,-1.01133989,-37.9466262,-45.26957567,-5.515400902,0,0,0
-1.028309787,0.238208751,-0.134688793,-51.23131655,-21.02405509,-10.38046292,0,0,0.602025474
-0.965612223,-0.030841201,-0.361840251,7.736828732,-16.72226743,8.408573751,0,0,0.874017361
-1.003644541,-0.039840809,-0.482867392,-11.24366782,-13.81224348,-3.646234976,0.25114629,0.271008532,0
-0.950277879,0.020482199,-0.720423928,9.509439649,-21.26233569,-6.782558704,0.066977277,0,0
-0.937348952,0.13496814,-0.832127043,78.11576269,-81.68740619,36.11049228,0,0,0
-1.000830275,0.267756947,0.082819137,-97.41357375,-16.37883937,-28.47547181,0,0,0.275083813
-1.027449544,0,-0.295351275,1.596667135,-20.56104851,9.212487914,0,0,0.845604919
-1.015431449,-0.04137381,-0.465544535,6.240637096,-4.408455007,1.136560638,0.233082445,0.313746403,0.077372327
-0.973353715,-0.039235383,-0.546269232,8.643105483,-17.05019521,-6.589814773,0.366469293,0.349192667,0
-0.827515911,0.060704439,-0.722050074,11.76476386,-46.67311479,-9.259998606,0,0,0
-0.810291012,0.334389326,-0.971734485,8.684006895,79.60684898,7.819681087,0,0,0
-1.068517123,-0.116102815,-0.398225403,26.45243675,-28.59130917,13.60251099,0,0,0.58292382
-1.085885177,-0.087619584,-0.459301291,37.36042067,-16.08101209,6.385514892,0.238889788,0.321182736,0
-0.880234529,-0.009879953,-0.790535355,0,-43.73259087,-5.793382967,0,0,0
-1.123093366,0.057035483,-1.018472794,-69.43806521,193.5855864,1.889086747,0,0,0
-1.100267553,0.180789587,-0.181606225,-25.65532066,-6.752676026,0.943286015,0,0,0.689484473
-1.011093752,-0.299900775,-0.482577286,-9.103382776,-15.51642581,2.728969313,0,0,0.634931286
-0.977758401,-0.048027426,-0.549805463,-1.25554163,-10.65874856,-0.571981591,0.292487649,0.226651927,0
-0.975318526,0.040933523,-0.699700102,-8.407012138,-29.45795869,-14.6669608,0,0,0
-0.831141303,0.040663614,-0.530685284,-14.97807665,40.97266635,-1.959217152,0,0,0
-0.839655639,0.181991734,-0.069810331,-64.47626523,3.123359848,-20.92677204,0,0,0.181064961
-0.993434121,-0.087168439,-0.289384368,18.87813645,-20.72051892,12.73170752,0,0,0.84142897
-1.019526292,0.105166256,-0.399990493,-14.65282512,1.966183747,-8.125232381,0,0.137355926,0.343600356
-1.031720918,-0.113927151,-0.52776516,23.70981588,-12.13657289,6.843511318,0.11912792,0.229611276,0
-0.994382803,-0.051179884,-0.511252334,-14.74498514,-6.003396539,-11.82049424,0.17132887,0.229536978,0.050577282
-0.848924376,0.030983096,-0.763536913,18.31982136,-32.53762387,-0.187886209,0,0,0
-1.018666303,0.222681173,-0.459772731,343.6723684,-20.36414046,112.6025716,0,0,0.454479728
-1.044780255,0.062802762,-0.333269625,-33.7240586,-5.503238372,-4.178842694,0,0.127723999,0.621524549
-0.949723764,-0.102511132,-0.487682381,5.114049207,-4.128512341,7.423863559,0.19138608,0.422041081,0.091742579
-0.955962717,0.090372286,-0.68998876,17.53187057,-38.07933192,-12.05965612,0,0,0
-1.101001746,0.40595257,-0.736932538,86.88001594,232.1166379,1.924715025,0,0,0
-1.068400021,-0.009836387,-0.207054875,28.06438598,-29.39072325,20.7053045,0,0,0.615509154
-1.077858683,-0.019752081,-0.362841608,6.117709762,-8.793785141,3.040722197,0,0,0.909909343
-0.98542012,-0.082375296,-0.459513131,-6.781925633,-4.646474301,-3.703774456,0.225278011,0.112252122,0.363815091
-0.930664982,-0.06295605,-0.650466429,-22.20354734,-21.63288781,-11.37185502,0.260587036,0.164174839,0
-1.071719435,0.071556043,-0.790638093,6.502857172,-79.21057139,13.95144471,0,0,0
-0.851825662,0.187939163,0.020055115,-82.54299692,-12.65692683,-21.40809313,0,0,0.157552761
-1.025193934,0.010252464,-0.250508571,30.44714812,-21.0651747,23.27988226,0,0,0.647794548
-1.048157792,-0.087720461,-0.475033179,-3.333845178,-10.32930034,-4.494939482,0.157834425,0.228779359,0.134568926
-0.986839873,-0.041683035,-0.685790412,3.312885672,-29.13467996,-10.71542986,0.049081608,0.276596395,0
-0.76725725,-0.142509985,-0.521210398,-81.81850574,63.39157732,-23.56782698,0,0,0
-1.034644632,0.310915076,-0.062960227,-32.99957702,-23.80836045,-12.50875007,0,0,0.43822719
-0.94493974,0.04837068,-0.271792141,16.94383204,-27.38523892,23.72312525,0,0,0.696830561
-1.015564794,0.103121567,-0.405740507,-16.99417577,-16.32790572,0.917828762,0.070781255,0.288233276,0.208728238
-0.999612021,-0.041461299,-0.694906231,2.667137785,-32.92700737,-12.26054231,0,0.263444601,0
-1.026631566,0.253161509,-0.461086201,-24.32459263,208.4011515,-17.87332462,0,0,0
-1.065514883,-0.159688995,-0.203879317,32.93362099,-32.0940514,26.32806449,0,0,0.636700637
-1.040021409,-0.096273546,-0.424720223,7.910851307,-6.566098028,-1.271809551,0.040070235,0.073113029,0.672082195
-0.96377963,-0.068582514,-0.581685325,5.977541725,-23.01419196,-5.266885848,0.30287835,0.398613229,0
-0.849037501,0.019636174,-0.780802139,16.10958692,-37.14980742,-0.65313884,0,0,0
-1.05471836,0.081704201,-0.8306887,-112.8006646,142.370903,-43.34198216,0,0,0
-1.039198175,-0.028545472,-0.176680901,3.868126612,-15.69681197,4.470277865,0,0,0.858834318
-1.02751364,-0.020337532,-0.394491454,-6.606470254,-2.054067471,-1.441280663,0,0,1.035427278
-1.006166981,-0.110267615,-0.528300593,-10.23624783,-21.86464517,-14.49685822,0.083005227,0.183256813,0.106985762
-0.885684764,0.020242474,-0.795180998,14.88997873,-26.186503,-4.138818343,0,0,0
-1.064516554,-0.04006314,-1.024256825,-83.41608285,179.1423328,-5.640739385,0,0,0
-1.12300046,0.031182844,-0.176663101,14.01539428,-20.77646456,16.13812593,0,0,0.847297476
-1.023301867,-0.204724416,-0.422857877,10.84043662,-9.620023567,0.76120486,0,0,0.8117907
-0.935925368,-0.058353081,-0.493599608,-2.855878312,-11.86772811,-1.497130578,0.260119073,0.272508201,0
-0.861072938,-0.010076556,-0.667153004,2.306589135,-15.67359239,-8.669546548,0.078930369,0.153451509,0
-0.953961225,0.083844612,-0.869774718,66.92390746,-49.24247329,29.26701336,0,0,0
-0.81061137,0.092014849,-0.095891135,7.164858986,-4.032847599,22.24547094,0,0,0
-1.059860583,0.019072396,-0.320703419,6.110273567,-14.85329695,7.907364331,0,0,0.950368289
-1.048246576,-0.113843435,-0.421931902,-9.701348137,-7.405948595,-0.774082701,0,0,0.70550704
-1.018382421,-0.038358567,-0.449116849,12.01270117,-18.30818651,5.481608014,0.167800788,0.217982479,0.095707825
-0.960815522,0.010073305,-0.688356617,2.455223993,-10.70149882,-3.703489955,0,0.25802505,0
-0.868572691,0.039683148,-0.936346006,99.80866967,-66.78277948,48.87128488,0,0,0
-1.129054822,0.347644607,0.288688989,50.1819207,5.40892685,5.883403393,0,0,0
-1.222287765,0.176441615,-0.329293252,-24.8822166,-9.668281367,-4.372953083,0,0,0.622609539
-1.025695728,-0.040204551,-0.431291702,5.352741897,-12.65951474,5.372073032,0.124191099,0.188159704,0.335309303
-1.034748885,-0.049982206,-0.644286,20.45736778,-22.65463377,3.339272048,0.398722075,0.38979393,0
-0.897560322,0.182233521,-0.83424294,156.9118025,21.55692063,70.71957622,0,0,0
-1.070856939,0.167211378,-0.214447272,-165.2949578,9.862391221,-81.14694867,0,0,0.319831421
-0.993486604,-0.020698953,-0.421026686,42.72856517,-23.15930033,28.70495686,0,0.049292043,0.486609231
-1.021695903,-0.050268741,-0.538625383,6.949599941,-13.02333609,-2.126397813,0.353251757,0.278744655,0
-0.871623493,0.08637953,-0.822250486,15.64652901,-49.43111537,-4.577921847,0,0,0
-1.078377952,0.286291025,-0.712847593,-98.33359986,165.048041,-6.911296441,0,0,0
-0.993434388,0.079263545,-0.115832094,-3.819284944,-23.40653849,7.024664733,0,0,0.556518121
-1.063289687,-0.020631529,-0.361494704,-7.972890042,-13.70105471,-1.731808743,0,0,0.709403696
-1.099361143,-0.029038654,-0.447826243,-14.040094,-0.636673064,-12.26698159,0.190088996,0.078253429,0.409093322
-0.968247194,-0.009565265,-0.578386216,7.829088635,-31.18395215,-8.477468009,0.331030296,0.277775249,0
-0.934258081,0.138648722,-0.676555352,14.68708735,-71.93230058,6.91406186,0,0,0
-0.756329236,0.190967138,-0.609491003,69.03234173,45.64599939,24.20621012,0,0,0
-1.017017521,-0.09257087,-0.1903879,-18.1924565,-19.83519134,-1.753106019,0,0,0.893836276
-1.000254504,-0.068807134,-0.406406639,24.5763465,-2.834255388,2.189220485,0.062780396,0.069167772,0.61935925
-0.933494338,-0.094447374,-0.553898281,-1.245990238,-16.11075168,-7.413911863,0.267162725,0.302183231,0
-0.853099527,0.062022593,-0.749328328,16.9600191,-29.37471985,-5.437169232,0,0,0
-1.189651634,-0.052299951,-0.962679077,-83.55644338,192.8336986,9.099826083,0,0,0
-1.042379666,0.028519347,-0.15826026,-6.750458524,-21.19277607,18.27199145,0,0,0.501444978
-1.02295028,-0.095820597,-0.367131692,-6.66305295,-19.82342384,4.420421757,0,0,0.581715735
-0.954452752,-0.049827863,-0.5214089,-3.507569375,-12.04118338,-1.378158766,0.134438004,0.384238676,0.143454944
-0.899133245,0.02065957,-0.707093806,5.44432621,-15.21905026,-9.301979887,0,0.208588238,0
-0.967544968,0.152356204,-0.272649244,-7.064618845,174.0146233,4.896684677,0,0,0
-1.227194843,0.049363474,-0.039291412,-18.11222815,-26.74129374,21.45773491,0,0,0.320303169
-1.058719696,0.029504565,-0.464101789,-75.69554912,-10.35638825,-29.04755293,0,0,0.566490628
-1.041947116,-0.010060426,-0.438027902,-0.759377229,-6.319741914,-2.372540295,0.16643437,0.309734271,0.180395821
-0.930836339,0.030722863,-0.699292718,9.423843075,-33.94042255,-10.31038257,0.182418667,0.228421155,0
-0.605674495,0.256536927,-0.706186036,1.681673472,92.3961699,-42.38382249,0,0,0
-1.00668112,-0.134497359,-0.030873796,-101.9076099,-17.4925003,-37.57230609,0,0,0.243474473
-0.963820016,0,-0.355341167,11.5993826,-22.97534357,9.883333599,0,0.132835836,0.602053086
-0.983522671,-0.009584812,-0.602397257,-1.741843156,-25.32350089,0.958552579,0.336978064,0.30030852,0
-0.901087288,0.198776694,-0.700763393,221.577755,-5.934560346,108.7877111,0,0,0
-0.921034182,0.101043536,-0.225022321,91.75184688,-9.259778685,26.00526886,0,0,0
-1.057819783,-0.062599229,-0.439683766,-9.585439363,-17.12224836,15.48661744,0,0.104228334,0.327567633
-0.971223998,-0.059870748,-0.493038605,3.16486214,-12.14666446,-3.470728989,0.323983063,0.397445798,0
-0.898461414,0.105017729,-0.721552989,19.97796241,-60.53929763,-12.56622431,0,0,0
-0.697723295,0.400797967,-0.592383248,91.47819707,28.75657659,20.95878121,0,0,0
-1.007584387,-0.072177761,-0.201680341,19.56955349,-27.85659434,6.148993343,0,0,0.798518584
-1.048783269,-0.079275301,-0.446116897,27.39139551,-13.23249665,-0.057293839,0.225491309,0.176006347,0.177121644
-0.957729992,-0.058605638,-0.709043388,4.421037536,-36.33191657,-14.2025268,0.166694533,0.178214758,0
-1.011177821,0.224158744,-0.833299335,66.09407858,169.2395661,25.38471421,0,0,0
-0.930114646,-0.009538777,-0.089442277,-46.53132977,-21.1941702,-3.7705528,0,0,0.377665719
-1.096756498,-0.069552298,-0.391115283,21.17723837,-17.75859881,6.630171213,0,0,0.967025874
-1.036889595,-0.03023034,-0.446561825,3.287502466,-10.42612425,-3.660322842,0,0.171544668,0.444015148
-0.896551303,0.030650684,-0.688871435,7.073252219,-20.48817915,-6.213392378,0,0.346067194,0
-0.950499552,0.167847603,-0.805895601,35.18043437,-64.58863279,20.19097296,0,0,0
-1.343299723,0.057663485,0.12518225,72.69862729,-4.86799836,34.41064623,0,0,0.082348313
-0.975225129,0.019238281,-0.306338038,18.42138353,-9.428564363,19.58332288,0,0,0.965983604
-0.780802268,-0.223848018,-0.637360019,9.149211896,-4.412291577,11.66527501,0,0,0.879963154
-1.006949224,0.099352313,-0.199615747,37.63468974,-13.21010433,21.88103652,0,0,0.551056359
-0.995288649,0.123845636,-0.309768512,0.933153301,-5.813410055,22.03499809,0,0,0.666779945
