accelX,accelY,accelZ,gyroX,gyroY,gyroZ,fsr1,fsr2,fsr3
-0.93268109,0.041222086,-0.391545037,-26.94377389,14.83248889,-18.61608171,0,0,0
-0.687791963,0.040700912,-0.878461079,10.67899472,1.551979076,11.37452383,0,0,0
-1.024271405,0.019241536,-0.43258075,-35.50065164,-8.89275316,-5.010769052,0.167063068,0.327634905,0.051440777
-0.983111332,0,-0.507233368,-11.98277749,-23.6451114,-0.795294071,0.372841963,0.238644657,0
-0.812154977,-0.019464267,-1.055599262,144.6703634,-118.4993564,71.52496026,0,0,0
-0.949459242,0.169244247,-0.051903375,-38.28614883,-30.7288373,0,0,0,0.510066435
-0.968370643,-0.180915683,-0.355563474,57.27609839,-22.03115599,1.956984702,0,0,0.818074878
-0.935136643,-0.083644929,-0.636518344,21.55308556,-32.92020964,-7.995084214,0.265821041,0,0
-0.829055654,-0.286280695,-0.696114746,-21.06880195,-16.47788996,8.425159246,0,0,0
-1.003195985,0.251274301,-0.071159199,-2.693794332,-25.15363066,19.21276576,0,0,0.733494758
-0.929215375,-0.160621857,-0.447004654,10.9092317,-14.83328628,4.741331628,0,0,0.752244068
-0.928628076,-0.040414973,-0.559036733,-0.445416592,-13.72130273,-7.089021397,0.327257217,0.268836392,0
-0.954462059,0.038301308,-0.707387305,1.829267448,-55.61269154,-11.35680805,0,0,0
-0.9328396,0.296866834,-0.792629712,-103.8670258,144.2019057,-24.86713373,0,0,0
-1.057378773,-0.019534311,-0.278118991,29.46913323,-28.64319898,17.15417997,0,0,1.168378337
-0.99204919,-0.077338956,-0.469645964,10.71936643,-14.85414379,-1.136988298,0,0.090743552,0.374878469
-0.991615028,0.020459477,-0.674861676,6.293365083,-29.46224469,-14.55569176,0,0,0
-1.021327118,0.088164516,-0.598025468,-48.63550582,11.13615713,7.200744456,0,0,0
-0.969272535,0.173570449,-0.083522802,-66.51257174,-23.13072327,-15.63718812,0,0,0.657642396
-1.078001426,-0.14328992,-0.4455449,3.328969047,-11.37211593,-10.50283921,0,0,0.845649788
-0.945287786,-0.069414969,-0.538499131,12.71558919,-4.267295744,-0.238148478,0.398780365,0.286800182,0
-0.883884031,0,-0.715511457,6.180203306,-37.01068494,-14.69922822,0.09106902,0,0
-1.184612354,-0.031307929,-1.112041366,-93.38266152,229.8349153,-2.590720701,0,0,0
-1.055009137,-0.083385685,-0.163227735,-19.52470402,-23.08481551,2.354394192,0,0,0.922525173
-0.991993452,-0.051492635,-0.413363089,-5.680967481,-9.081318907,-2.808888409,0.262272406,0.041684223,0
-1.003787879,-0.029952651,-0.631250371,4.10736769,-16.84927734,-0.366145957,0.334264856,0.20585665,0
-1.061396009,-0.129139182,-0.225928066,37.45388304,-35.72435795,23.21098628,0,0,0.842416676
-0.924253107,-0.162952312,-0.413798001,22.62994329,-17.15722489,12.12912975,0,0,1.010807509
-1.046457515,-0.082928854,-0.505530172,11.71602219,-16.97508237,1.722507784,0.260851534,0.155404526,0
-0.882235746,0.009827403,-0.704039438,11.44236598,-39.1419186,-12.07413356,0.040586999,0,0
-0.869771708,-0.010014319,-0.718927057,8.47493077,-35.17185426,-9.211088819,0,0.112627127,0
-0.929422279,0.249098166,-0.454708872,6.549802131,205.1768496,-34.24691091,0,0,0
-1.016980494,-0.031243843,-0.19432853,-37.1496057,-22.8527484,15.86099116,0,0,0.89169818
-0.987307614,-0.114489572,-0.40610319,6.404815188,-11.75694333,-5.078814446,0,0,0.805159203
-0.966028985,0,-0.609031794,5.365362743,-19.47268633,-8.598628699,0.306430163,0.243129526,0
-0.862877287,0.118599126,-0.70280967,6.989480322,-54.4177427,-10.52409127,0,0,0
-0.675265329,0.337184298,-0.872662469,125.3060013,51.51994947,26.63147604,0,0,0
-1.035691838,-0.224524664,-0.322927111,4.144480954,-15.3517301,-2.157567164,0,0,1.192155883
-1.072754578,-0.0500253,-0.434865318,-8.226233101,-8.592885114,-12.12781919,0.167717695,0,0.384028519
-0.91757874,0.061374289,-0.659105204,-30.59879838,-17.46652058,-20.0780398,0.142954362,0.219143397,0
-0.833786952,0.009721701,-0.783415672,15.9096079,-37.93072676,2.42338523,0,0,0
-0.777848057,0.220676417,-0.809793472,-21.42278729,115.3383319,-3.918655013,0,0,0
-0.980697392,-0.085981434,-0.257096928,35.50718869,-19.94782686,21.40528393,0,0,1.033414224
-1.033557513,-0.091604651,-0.365660072,-7.952358919,-8.979749433,4.220186217,0,0,1.07857919
-1.039153947,-0.091252863,-0.440799851,5.408412764,-5.380861929,-4.607907287,0.190295824,0.270574534,0.278954152
-1.039273791,-0.049996135,-0.56674844,-0.314501646,-16.10588507,-8.389326364,0.353256212,0.388156318,0
-0.982728463,0.134582259,-0.743757431,27.01011668,-78.37957434,3.475203854,0,0,0
-0.61337647,0.172681233,-0.741185214,32.10999751,-4.284054506,22.72887919,0,0,0
-1.049420292,0.048169673,-0.146273302,-3.628932746,-16.77976028,7.385678716,0,0,0.96558879
-1.022609605,-0.070171334,-0.400459265,18.63560163,-8.438773848,4.37305443,0,0,0.657273485
-0.999268163,-0.030806551,-0.492165304,-5.098456708,-9.60542517,-1.619558411,0.285166366,0.313203904,0
-0.908429766,-0.020280492,-0.675601168,2.691830785,-19.18687055,-7.174967326,0.161278157,0.071236945,0
-1.105222324,0.15476559,-0.788358477,46.19398284,-95.59070408,24.25336963,0,0,0
-0.792761117,0.092822117,-0.165863946,-40.97180753,22.13735954,3.7226301,0,0,0.177166898
-0.975107447,-0.029933708,-0.240382159,-12.26035668,-18.62655822,7.421441708,0,0,0.977876349
-1.064531813,-0.077114598,-0.399433938,16.53915407,-11.44506635,0.722244397,0,0.105513608,0.670684622
-0.980219889,-0.069277646,-0.563140709,8.104622419,-17.92418421,0.705576745,0.321256786,0.416510177,0
-0.951130127,0.048178136,-0.736527539,13.92937548,-44.93045854,-6.1524691,0,0,0
-1.104587056,0.155060373,-0.849441681,-136.082725,211.1071213,-32.06320286,0,0,0
-1.041760055,-0.078862919,-0.134205853,-11.77699378,-21.19533276,1.93211915,0,0,0.828755904
-1.000854653,-0.100880916,-0.330177728,9.196296404,-15.24943161,5.02728766,0,0,0.933285289
-1.06368948,-0.062406511,-0.501730126,10.40086951,-18.07724077,-2.999883861,0.183346013,0.26870348,0
-0.878267944,-0.049417379,-0.681502906,17.47975047,-25.40598173,1.46075451,0.276987467,0.115729999,0
-0.647844474,0.312612216,-0.61198368,-69.24362057,55.9260185,-48.22761415,0,0,0
-0.96900382,-0.479458873,-0.175660145,8.777670436,-29.8187701,24.14462239,0,0,0.111958577
-0.990069081,-0.070453223,-0.217691806,-10.17663127,-17.06596494,6.303235332,0,0,0.874742824
-1.00008017,-0.058916357,-0.444765012,32.04184934,-11.00106223,4.474144723,0.10495886,0.098066107,0.525904374
-0.940559661,-0.052385771,-0.596476092,-7.5804026,-18.08343333,-5.374238131,0.391389832,0.269789633,0
-0.797548606,-0.019469952,-0.851170238,31.00819642,-9.000576063,13.65856581,0,0,0
-0.937219022,0.246060009,-0.542269045,130.9904959,4.659666275,37.48032774,0,0,0
-1.046947204,-0.019396583,-0.351531319,27.5080884,-21.15334237,43.30450578,0,0,0.702057575
-1.043453258,-0.120868193,-0.475803981,-9.074546979,-12.92437346,1.423378796,0.051169627,0.120867116,0.321771551
-0.957567102,0,-0.606870828,5.39121315,-20.73899636,-0.060809203,0.288482176,0.339978993,0
-0.913671945,0.038066514,-0.864426463,30.35044628,-43.9293359,2.305740175,0,0,0
-1.036773192,0.26866051,-0.622632826,18.63641647,129.8450559,13.06797372,0,0,0
-1.15928064,-0.062304323,-0.195392341,-42.11996487,-9.883218543,-15.18716284,0,0,0.866049979
-1.025416994,-0.019646854,-0.106596036,-20.00382849,-1.206190455,-9.266272711,0,0,0.811158284
-1.011076001,0.030697186,-0.450197792,1.637072121,-10.25590156,-5.772076739,0,0.22023523,0.241777552
-0.897668575,0.05944814,-0.643688258,13.60793685,-36.95236594,-6.893372047,0.047863091,0.273304334,0
-0.83869952,-0.062550744,-0.899673837,31.88721107,-46.57403164,33.63512818,0,0,0
-1.013037954,0.052157553,-0.129763542,-59.51796446,-20.06028889,-7.094083148,0,0,0.400095325
-1.036909613,-0.010314444,-0.290063709,2.928581689,-12.86528374,2.99193878,0,0,1.026741111
-1.078246232,-0.059278443,-0.421824158,10.0969277,-5.820539585,0.705665494,0.107845709,0.17292259,0.398088572
-0.979445839,-0.038102762,-0.536189265,3.649843888,-17.17344398,-6.387857721,0.332880568,0.383686002,0
-0.885787276,0,-0.728647502,9.026551348,-26.03386597,0.752979313,0,0,0
-1.100473608,-0.0812167,-0.902065893,-87.37209008,201.3875071,10.43242605,0,0,0
-0.983523519,0.048147145,-0.171893064,13.33936586,-27.68973399,14.35480864,0,0,0.822891628
-0.999267079,-0.185521658,-0.397548553,-16.5208274,-14.29722688,-2.792403034,0,0,0.737882802
-0.977070581,-0.028986795,-0.536195843,15.30655324,-19.63859827,6.105828581,0.220644435,0.435197828,0
-0.919061799,0.049502936,-0.793753822,11.77202492,-22.93901723,-9.520030198,0,0,0
-1.356404663,0.040390996,-1.208082471,45.29541409,231.4443219,71.4166695,0,0,0
-1.108404207,0.096829571,-0.206700829,-18.71655799,-17.20780565,3.877973216,0,0,0.924503026
-1.034270182,-0.061461328,-0.444360754,49.8335614,-7.366439373,15.01600686,0.13636242,0.134093505,0.421491958
-0.944301797,-0.068779536,-0.611791134,-3.171264077,-27.12040678,-2.489191501,0.305300335,0,0
-0.838425488,0.070525171,-0.819538701,4.554391253,-45.09962656,-12.22961722,0,0,0
-1.230160916,0.126532037,-0.762882226,115.5878511,230.9100369,30.3404215,0,0,0
-1.062660318,0.00996615,-0.210625417,-57.52245898,-1.266870611,-10.24737017,0,0,0.660286747
-0.993641236,0,-0.340357249,19.04107855,-16.36143033,15.49171183,0,0,0.732687888
-0.914258006,-0.309539183,-0.440058086,-28.74176912,-9.000533405,11.73525133,0,0,0.767449515
-0.955518889,-0.07939736,-0.525154147,4.282077806,-16.39349077,2.517812897,0.254486429,0.251457352,0
-0.896405749,0.049875138,-0.670716987,0.248576079,-24.22034813,-8.847027873,0,0,0
-0.709439018,0.157431136,-0.448707314,-86.19438838,157.1517468,-56.54127076,0,0,0
-1.049136318,0.019692422,-0.135932501,35.03719966,-29.00744826,18.34833097,0,0,0.543374939
-1.045797198,0,-0.329563041,-16.74522888,-12.08683869,-0.3687485,0,0,0.714805264
-0.975416441,-0.07990115,-0.48706739,2.256896779,-9.470427912,-6.34391332,0.140777109,0.315347512,0
-0.988342733,0.019074058,-0.686816835,4.98845988,-30.47379842,-14.83774877,0.116307856,0.286527725,0
-0.96555999,0.472277782,-0.476542897,-74.66730527,237.0868574,-53.00531134,0,0,0
-1.09283872,-0.143172975,-0.170409174,10.7466389,-28.9542552,12.96769309,0,0,0.545296234
-0.994534616,-0.108677795,-0.346221794,9.195640726,-12.14063444,6.19128425,0,0,0.970806706
-0.99968287,-0.049831154,-0.484865248,26.24416295,-7.228137399,1.642914024,0.217896667,0.219546375,0.120068013
-0.965956939,-0.028845547,-0.637032736,-0.525586303,-20.91851391,-9.076880963,0.314063513,0.376794806,0
-0.775897349,0.091713264,-0.768756294,8.019106619,-34.15867193,-1.85271674,0,0,0
