accelX,accelY,accelZ,gyroX,gyroY,gyroZ,fsr1,fsr2,fsr3
-0.899112074,0.041600067,-0.411195797,-25.4594695,14.1056295,-18.5321003,0,0,0
-0.687256886,0.041879137,-0.814709713,11.2441003,1.465984656,11.4530326,0,0,0
-1.058000135,0.019012273,-0.429644753,-35.49813916,-8.451498946,-4.727321866,0.155233263,0.326130882,0.051733553
-1.025037812,0,-0.52128693,-11.78490435,-22.80236527,-0.803623496,0.355117914,0.24551332,0
-0.825082569,-0.020049613,-1.046804705,136.3754828,-118.343052,70.88898053,0,0,0
-0.892372428,0.176943331,-0.048409836,-39.15501061,-30.50585357,0,0,0,0.517688054
-0.989967933,-0.197770511,-0.351174057,60.00709714,-22.16567465,1.876769328,0,0,0.817172822
-1.001476613,-0.077100494,-0.623877721,20.59300083,-33.81175235,-7.846591577,0.258526359,0,0
-0.89253501,-0.28420392,-0.691187767,-20.73045236,-16.02363363,8.073389333,0,0,0
-1.039954036,0.246038383,-0.072420946,-2.705679152,-26.02574388,18.17336687,0,0,0.737776681
-0.898321946,-0.154802003,-0.445196418,11.15678639,-14.10037325,4.744790959,0,0,0.76474589
-0.917218291,-0.039253823,-0.564186801,-0.444179752,-12.94766816,-6.727516776,0.321090594,0.27707882,0
-0.938922212,0.040961198,-0.730228885,1.859982094,-54.48512393,-11.39425759,0,0,0
-0.980618378,0.297114494,-0.858380838,-102.4260135,150.8908458,-25.25315487,0,0,0
-1.015978176,-0.019825371,-0.282854876,31.22171634,-29.85467448,17.7249245,0,0,1.106396596
-1.007714005,-0.081431398,-0.464580422,10.89270813,-13.92493394,-1.187934452,0,0.085806105,0.405594635
-0.965604184,0.020803191,-0.693563139,6.544870407,-29.32434684,-14.95617987,0,0,0
-0.950678386,0.090528671,-0.596405583,-47.56348406,11.27553,7.056186795,0,0,0
-1.014762034,0.17498716,-0.076180043,-66.02960029,-23.2995405,-16.2316469,0,0,0.645193233
-1.075283643,-0.133764316,-0.442828987,3.253572596,-11.77816882,-10.84940549,0,0,0.897604223
-0.916749834,-0.07164057,-0.553631784,12.62572719,-4.076676292,-0.232631115,0.381249929,0.30157049,0
-0.919249222,0,-0.708422453,6.135248014,-37.68518427,-15.43747746,0.087537995,0,0
-1.234527608,-0.029450593,-1.054551446,-98.32190826,218.3409767,-2.440321385,0,0,0
-1.060581646,-0.083898296,-0.166407141,-20.28693853,-23.8572886,2.426105393,0,0,0.922589009
-1.019252579,-0.051358676,-0.444954478,-5.630136281,-8.697606951,-2.933191995,0.277556135,0.039188154,0
-0.935935109,-0.031348481,-0.615247711,4.003452438,-16.99592211,-0.383501352,0.338459372,0.197896777,0
-1.071703784,-0.130596218,-0.223021719,35.02277292,-35.01423927,24.64251577,0,0,0.881720885
-0.940206786,-0.178213055,-0.392106793,21.6533299,-15.8625579,12.962512,0,0,0.962037382
-1.00551386,-0.07719375,-0.503271936,11.68032219,-17.558264,1.665330035,0.256653436,0.155329204,0
-0.940468774,0.009951339,-0.719758405,10.92534145,-39.9689726,-12.20899714,0.038289472,0,0
-0.874227393,-0.010433114,-0.701008163,8.806022703,-37.08484689,-9.096776296,0,0.113039347,0
-0.897933337,0.247915362,-0.439775639,6.662698787,204.3566419,-32.79134077,0,0,0
-1.056424934,-0.031331144,-0.193638649,-37.33629773,-22.75046039,15.27430198,0,0,0.931934337
-1.043442703,-0.108915629,-0.389918713,6.086842668,-11.90718636,-5.00015991,0,0,0.759954273
-0.986585502,0,-0.589028324,5.221470309,-20.13728973,-8.480545441,0.305841863,0.251999401,0
-0.854574264,0.118128413,-0.689593511,6.629130804,-50.9844696,-10.64516637,0,0,0
-0.680167536,0.343421447,-0.831988485,118.5189706,54.3386264,26.21385857,0,0,0
-1.037733334,-0.227203657,-0.314701992,4.197664932,-14.27046293,-2.275703485,0,0,1.104985449
-1.084044186,-0.05114849,-0.461080263,-8.030470902,-8.319930962,-12.09336214,0.171345564,0,0.370430188
-0.953866617,0.062785297,-0.643230947,-28.42383179,-18.31676101,-19.43654034,0.156359265,0.218147586,0
-0.826436403,0.009936639,-0.814942901,15.33293776,-40.55980848,2.336277934,0,0,0
-0.77707204,0.231620956,-0.793366185,-22.69019061,109.7263348,-4.057888728,0,0,0
-0.999210729,-0.087889609,-0.272939157,35.9825943,-19.52406421,20.75252848,0,0,1.012973725
-1.079772084,-0.088661901,-0.347339523,-7.792930886,-8.830471376,4.102554519,0,0,1.028405154
-1.046520986,-0.087713736,-0.457262221,5.510702797,-5.371672996,-4.446579678,0.199402991,0.266447603,0.276206077
-1.025417565,-0.04977609,-0.540329043,-0.29969421,-15.13554611,-8.852180728,0.353857559,0.419429769,0
-0.97250475,0.137535736,-0.7010052,27.87293516,-75.37072035,3.40938632,0,0,0
-0.6223247,0.172290296,-0.704953547,32.20268447,-4.257240326,22.26317387,0,0,0
-1.037440723,0.049173889,-0.14433019,-3.510678596,-15.92429946,7.077509325,0,0,0.979880604
-1.019935985,-0.073155683,-0.386154396,19.12148479,-8.49665248,4.502556143,0,0,0.661143346
-0.996898135,-0.030717329,-0.475335672,-4.833412417,-10.48780096,-1.601663903,0.306717502,0.333260438,0
-0.93908669,-0.019241883,-0.674551255,2.935466969,-18.48340696,-7.714154924,0.166323078,0.071581953,0
-1.07145799,0.161238111,-0.774670422,44.32462375,-99.33782544,24.42495049,0,0,0
-0.815448688,0.087738673,-0.164616645,-40.6886566,22.18295115,3.726753395,0,0,0.173427082
-1.065188515,-0.029610938,-0.251631667,-11.93663448,-19.19795904,7.793010863,0,0,0.946870568
-1.014459917,-0.079795425,-0.410802826,16.68372836,-11.82991135,0.735434811,0,0.1128854,0.69264956
-0.995832017,-0.071485882,-0.585015174,8.210113299,-16.90443893,0.705836366,0.329715385,0.414474445,0
-0.907199393,0.049775651,-0.758968922,14.21117988,-47.77012721,-6.177672106,0,0,0
-1.141436013,0.143031001,-0.866851617,-141.5592286,208.1996657,-32.38986391,0,0,0
-1.127660738,-0.078744885,-0.141025663,-11.58146316,-21.7598899,2.006601737,0,0,0.808929537
-1.06107761,-0.095704859,-0.315639705,9.235891075,-15.78397349,5.018801124,0,0,0.964455432
-1.079350872,-0.061984866,-0.502055147,10.0395676,-18.15350748,-2.899000878,0.194782342,0.28331348,0
-0.909680612,-0.049112015,-0.652897156,16.81781016,-25.04483587,1.575937129,0.302245882,0.114743996,0
-0.650620934,0.307856834,-0.620145276,-66.81437951,53.31825942,-47.68157818,0,0,0
-0.967951505,-0.451301028,-0.187421578,9.336987059,-28.12559624,23.61633378,0,0,0.104788605
-0.994082759,-0.066630275,-0.213941183,-9.967575273,-15.97275707,6.60387394,0,0,0.874629225
-1.04174778,-0.061482692,-0.432236591,31.33423467,-10.95564975,4.514691068,0.107708529,0.098097509,0.52480634
-0.943834187,-0.052322552,-0.631318032,-8.002111936,-19.0318009,-5.468470387,0.367109602,0.276711745,0
-0.778687384,-0.020625508,-0.857413228,34.10164008,-8.828637424,14.28403316,0,0,0
-0.945520017,0.238487593,-0.566872066,127.677674,4.823217621,39.28728476,0,0,0
-1.022889581,-0.019130325,-0.342102571,28.21270003,-20.7475604,43.9568263,0,0,0.693911364
-1.051649235,-0.116183432,-0.477837876,-9.088392731,-13.02209718,1.487217432,0.050167527,0.116906536,0.312080157
-0.940375283,0,-0.551784827,5.459253037,-19.11386938,-0.058647154,0.284548555,0.347125035,0
-0.879566137,0.039212488,-0.872274725,30.26372244,-41.76513374,2.177076632,0,0,0
-0.979171373,0.250772042,-0.647834612,18.4013654,126.2699693,12.22951026,0,0,0
-1.201454766,-0.061998872,-0.199848201,-39.69045815,-10.36888773,-14.32786236,0,0,0.859126212
-1.074045572,-0.020755491,-0.114987627,-20.49662502,-1.113959813,-8.816170894,0,0,0.819395013
-1.056206616,0.030551029,-0.438295329,1.700302831,-9.652080475,-5.477700225,0,0.224449325,0.239239383
-0.914449712,0.062639143,-0.644205372,13.36186044,-35.19361706,-6.726990552,0.051706462,0.263809568,0
-0.849021197,-0.059002857,-0.867670398,35.09549083,-46.29462989,33.91142038,0,0,0
-0.939254448,0.051550276,-0.13349803,-56.22089185,-19.92425748,-6.588097698,0,0,0.430145551
-1.120169459,-0.010102169,-0.28655876,3.019537002,-12.75015196,3.23548609,0,0,1.024154187
-0.983957069,-0.057470352,-0.45049139,10.80497303,-5.730309301,0.741082844,0.108743224,0.165779002,0.408249256
-0.952696849,-0.040047356,-0.545733671,3.633981509,-17.30539999,-5.834006581,0.30822054,0.382804492,0
-0.870092345,0,-0.706308228,8.72881153,-26.73375717,0.694154569,0,0,0
-1.172798066,-0.079530397,-0.949816149,-85.47198686,200.4386503,9.90135042,0,0,0
-1.027424274,0.049334714,-0.175115043,13.95858536,-27.51431479,14.09978712,0,0,0.785586038
-0.958957769,-0.184204165,-0.387275125,-17.74293256,-13.92392901,-2.839614204,0,0,0.738848869
-0.986128435,-0.029359173,-0.519005501,15.38924936,-19.82960286,6.521543406,0.233447931,0.446839757,0
-0.91516168,0.047935177,-0.753967604,11.37015744,-21.76957321,-9.393085472,0,0,0
-1.308485132,0.038425321,-1.20087526,44.38432648,246.5100817,67.92389558,0,0,0
-1.172709908,0.100945424,-0.208665637,-17.83320419,-17.1941714,3.829629168,0,0,0.863589233
-0.99149528,-0.062661865,-0.423682787,49.66011706,-7.358895127,15.23120665,0.145155133,0.126214675,0.418372785
-0.939139139,-0.071673879,-0.627621291,-3.187268248,-28.03266493,-2.396808213,0.320768609,0,0
-0.829222786,0.073353726,-0.80754714,4.364730948,-45.52318794,-12.14835963,0,0,0
-1.157693199,0.130399535,-0.769383346,115.5869191,220.8175932,29.19514302,0,0,0
-1.005664787,0.010098211,-0.213553664,-54.59636143,-1.303540181,-10.09808077,0,0,0.650842931
-0.943231099,0,-0.342365349,19.44489772,-16.62278439,14.77784198,0,0,0.729491373
-0.981235008,-0.322907488,-0.434053026,-28.94598713,-9.306228353,10.76011491,0,0,0.772026103
-0.915060527,-0.081029624,-0.565154822,4.306591134,-14.99684684,2.549855459,0.260475056,0.236518375,0
-0.917154741,0.047831805,-0.719180325,0.234172142,-23.27155748,-9.059714518,0,0,0
-0.738775102,0.142797874,-0.43456577,-94.19328251,167.9508641,-55.37114374,0,0,0
-1.03035269,0.019150356,-0.136332811,36.39538475,-29.42307179,17.75238499,0,0,0.534026421
-1.038964368,0,-0.330328077,-17.04754419,-11.61208998,-0.365087711,0,0,0.728137519
-0.995532741,-0.079829615,-0.489945881,2.304977768,-9.32462743,-6.811158888,0.13617494,0.332785809,0
-1.017019315,0.020274104,-0.700274964,5.134474812,-31.1565822,-14.48033267,0.122978371,0.303200796,0
-0.992601858,0.504846878,-0.459451928,-70.58907927,225.2000736,-57.02604373,0,0,0
-1.106592261,-0.137684512,-0.162691582,10.94703523,-30.04734182,13.47119189,0,0,0.546511087
-0.99916619,-0.111788978,-0.350132176,9.536582936,-12.79459883,5.850711297,0,0,0.930151621
-0.966174388,-0.050757796,-0.459520519,27.3141903,-7.660343379,1.781886394,0.211401706,0.219454204,0.115477895
-0.900732723,-0.030348033,-0.624030353,-0.537965642,-20.18408167,-8.641506867,0.340746945,0.352196976,0
-0.785699939,0.08677568,-0.760874356,8.290076833,-34.45814995,-1.744352101,0,0,0
